STUDYID,USUBJID,SUBJID,SITEID,COUNTRY,DOMAIN,RFSTDTC,RFENDTC,RFXSTDTC,RFXENDTC,RFPENDTC,SCRFDT,FRVDT,DTHDTC,DTHADY,DTHFL,LDDTHELD,LDDTHGR1,DTH30FL,DTHA30FL,DTHDOM,DTHB30FL,REGION1,DMDTC,DMDY,AGE,AGEU,AGEGR1,SEX,RACE,RACEGR1,ETHNIC,SAFFL,ARM,ARMCD,ACTARM,ACTARMCD,TRT01P,TRT01A,TRTSDT,TRTSDTM,TRTSTMF,TRTEDT,TRTEDTM,TRTETMF,EOSSTT,EOSDT,RFICDTC,RANDDT,LSTALVDT,TRTDURD,DTHDT,DTHDTF,DTHCAUS,DTHCGR1,AESEQ,AETERM,AEDECOD,AEBODSYS,AEBDSYCD,AELLT,AELLTCD,AEPTCD,AEHLT,AEHLTCD,AEHLGT,AEHLGTCD,AESOC,AESOCCD,AESTDTC,ASTDT,ASTDTM,ASTDTF,ASTTMF,AEENDTC,AENDT,AENDTM,AENDTF,AENTMF,ASTDY,AESTDY,AENDY,AEENDY,ADURN,ADURU,TRTEMFL,AOCCIFL,AESER,AESDTH,AESLIFE,AESHOSP,AESDISAB,AESCONG,AESEV,ASEV,ASEVN,AEREL,AREL,AEACN,AESPID,AEOUT,AESCAN,AESOD,AEDTC,LDOSEDTM,DOSEON,DOSEU
CDISCPILOT01,01-701-1015,1015,701,USA,AE,2014-01-02,2014-07-02,2014-01-02,2014-07-02,2014-07-02T11:45,NA,NA,NA,NA,NA,NA,NA,NA,NA,NA,NA,NA,2013-12-26,-7,63,YEARS,18-64,F,WHITE,White,HISPANIC OR LATINO,Y,Placebo,Pbo,Placebo,Pbo,Placebo,Placebo,2014-01-02,2014-01-02T00:00:00Z,H,2014-07-02,2014-07-02T23:59:59Z,H,COMPLETED,2014-07-02,NA,2014-01-02,2014-07-02,182,NA,NA,NA,NA,1,APPLICATION SITE ERYTHEMA,APPLICATION SITE ERYTHEMA,GENERAL DISORDERS AND ADMINISTRATION SITE CONDITIONS,NA,APPLICATION SITE REDNESS,NA,NA,HLT_0617,NA,HLGT_0152,NA,GENERAL DISORDERS AND ADMINISTRATION SITE CONDITIONS,NA,2014-01-03,2014-01-03,2014-01-03T00:00:00Z,NA,H,NA,NA,NA,NA,NA,2,2,NA,NA,NA,NA,Y,Y,N,N,N,N,N,N,MILD,MILD,1,PROBABLE,PROBABLE,NA,E07,NOT RECOVERED/NOT RESOLVED,N,N,2014-01-16,2014-01-03T00:00:00Z,0,mg
CDISCPILOT01,01-701-1015,1015,701,USA,AE,2014-01-02,2014-07-02,2014-01-02,2014-07-02,2014-07-02T11:45,NA,NA,NA,NA,NA,NA,NA,NA,NA,NA,NA,NA,2013-12-26,-7,63,YEARS,18-64,F,WHITE,White,HISPANIC OR LATINO,Y,Placebo,Pbo,Placebo,Pbo,Placebo,Placebo,2014-01-02,2014-01-02T00:00:00Z,H,2014-07-02,2014-07-02T23:59:59Z,H,COMPLETED,2014-07-02,NA,2014-01-02,2014-07-02,182,NA,NA,NA,NA,2,APPLICATION SITE PRURITUS,APPLICATION SITE PRURITUS,GENERAL DISORDERS AND ADMINISTRATION SITE CONDITIONS,NA,APPLICATION SITE ITCHING,NA,NA,HLT_0317,NA,HLGT_0338,NA,GENERAL DISORDERS AND ADMINISTRATION SITE CONDITIONS,NA,2014-01-03,2014-01-03,2014-01-03T00:00:00Z,NA,H,NA,NA,NA,NA,NA,2,2,NA,NA,NA,NA,Y,NA,N,N,N,N,N,N,MILD,MILD,1,PROBABLE,PROBABLE,NA,E08,NOT RECOVERED/NOT RESOLVED,N,N,2014-01-16,2014-01-03T00:00:00Z,0,mg
CDISCPILOT01,01-701-1015,1015,701,USA,AE,2014-01-02,2014-07-02,2014-01-02,2014-07-02,2014-07-02T11:45,NA,NA,NA,NA,NA,NA,NA,NA,NA,NA,NA,NA,2013-12-26,-7,63,YEARS,18-64,F,WHITE,White,HISPANIC OR LATINO,Y,Placebo,Pbo,Placebo,Pbo,Placebo,Placebo,2014-01-02,2014-01-02T00:00:00Z,H,2014-07-02,2014-07-02T23:59:59Z,H,COMPLETED,2014-07-02,NA,2014-01-02,2014-07-02,182,NA,NA,NA,NA,3,DIARRHOEA,DIARRHOEA,GASTROINTESTINAL DISORDERS,NA,DIARRHEA,NA,NA,HLT_0148,NA,HLGT_0588,NA,GASTROINTESTINAL DISORDERS,NA,2014-01-09,2014-01-09,2014-01-09T00:00:00Z,NA,H,2014-01-11,2014-01-11,2014-01-11T23:59:59Z,NA,H,8,8,10,10,3,days,Y,NA,N,N,N,N,N,N,MILD,MILD,1,REMOTE,REMOTE,NA,E06,RECOVERED/RESOLVED,N,N,2014-01-16,2014-01-09T00:00:00Z,0,mg
CDISCPILOT01,01-701-1023,1023,701,USA,AE,2012-08-05,2012-09-02,2012-08-05,2012-09-01,2013-02-18,NA,2013-02-18,NA,NA,NA,NA,NA,NA,NA,NA,NA,NA,2012-07-22,-14,64,YEARS,18-64,M,WHITE,White,HISPANIC OR LATINO,Y,Placebo,Pbo,Placebo,Pbo,Placebo,Placebo,2012-08-05,2012-08-05T00:00:00Z,H,2012-09-01,2012-09-01T23:59:59Z,H,DISCONTINUED,2012-09-02,NA,2012-08-05,2012-09-02,28,NA,NA,NA,NA,2,ERYTHEMA,ERYTHEMA,SKIN AND SUBCUTANEOUS TISSUE DISORDERS,NA,LOCALIZED ERYTHEMA,NA,NA,HLT_0284,NA,HLGT_0192,NA,SKIN AND SUBCUTANEOUS TISSUE DISORDERS,NA,2012-08-07,2012-08-07,2012-08-07T00:00:00Z,NA,H,NA,NA,NA,NA,NA,3,3,NA,NA,NA,NA,Y,Y,N,N,N,N,N,N,MODERATE,MODERATE,2,PROBABLE,PROBABLE,NA,E09,NOT RECOVERED/NOT RESOLVED,N,N,2012-08-27,2012-08-07T00:00:00Z,0,mg
CDISCPILOT01,01-701-1023,1023,701,USA,AE,2012-08-05,2012-09-02,2012-08-05,2012-09-01,2013-02-18,NA,2013-02-18,NA,NA,NA,NA,NA,NA,NA,NA,NA,NA,2012-07-22,-14,64,YEARS,18-64,M,WHITE,White,HISPANIC OR LATINO,Y,Placebo,Pbo,Placebo,Pbo,Placebo,Placebo,2012-08-05,2012-08-05T00:00:00Z,H,2012-09-01,2012-09-01T23:59:59Z,H,DISCONTINUED,2012-09-02,NA,2012-08-05,2012-09-02,28,NA,NA,NA,NA,1,ERYTHEMA,ERYTHEMA,SKIN AND SUBCUTANEOUS TISSUE DISORDERS,NA,ERYTHEMA,NA,NA,HLT_0284,NA,HLGT_0192,NA,SKIN AND SUBCUTANEOUS TISSUE DISORDERS,NA,2012-08-07,2012-08-07,2012-08-07T00:00:00Z,NA,H,2012-08-30,2012-08-30,2012-08-30T23:59:59Z,NA,H,3,3,26,26,24,days,Y,NA,N,N,N,N,N,N,MILD,MILD,1,POSSIBLE,POSSIBLE,NA,E08,NOT RECOVERED/NOT RESOLVED,N,N,2012-08-27,2012-08-07T00:00:00Z,0,mg
CDISCPILOT01,01-701-1023,1023,701,USA,AE,2012-08-05,2012-09-02,2012-08-05,2012-09-01,2013-02-18,NA,2013-02-18,NA,NA,NA,NA,NA,NA,NA,NA,NA,NA,2012-07-22,-14,64,YEARS,18-64,M,WHITE,White,HISPANIC OR LATINO,Y,Placebo,Pbo,Placebo,Pbo,Placebo,Placebo,2012-08-05,2012-08-05T00:00:00Z,H,2012-09-01,2012-09-01T23:59:59Z,H,DISCONTINUED,2012-09-02,NA,2012-08-05,2012-09-02,28,NA,NA,NA,NA,4,ERYTHEMA,ERYTHEMA,SKIN AND SUBCUTANEOUS TISSUE DISORDERS,NA,ERYTHEMA,NA,NA,HLT_0284,NA,HLGT_0192,NA,SKIN AND SUBCUTANEOUS TISSUE DISORDERS,NA,2012-08-07,2012-08-07,2012-08-07T00:00:00Z,NA,H,2012-08-30,2012-08-30,2012-08-30T23:59:59Z,NA,H,3,3,26,26,24,days,Y,NA,N,N,N,N,N,N,MILD,MILD,1,POSSIBLE,POSSIBLE,NA,E08,RECOVERED/RESOLVED,N,N,2012-09-02,2012-08-07T00:00:00Z,0,mg
CDISCPILOT01,01-701-1023,1023,701,USA,AE,2012-08-05,2012-09-02,2012-08-05,2012-09-01,2013-02-18,NA,2013-02-18,NA,NA,NA,NA,NA,NA,NA,NA,NA,NA,2012-07-22,-14,64,YEARS,18-64,M,WHITE,White,HISPANIC OR LATINO,Y,Placebo,Pbo,Placebo,Pbo,Placebo,Placebo,2012-08-05,2012-08-05T00:00:00Z,H,2012-09-01,2012-09-01T23:59:59Z,H,DISCONTINUED,2012-09-02,NA,2012-08-05,2012-09-02,28,NA,NA,NA,NA,3,ATRIOVENTRICULAR BLOCK SECOND DEGREE,ATRIOVENTRICULAR BLOCK SECOND DEGREE,CARDIAC DISORDERS,NA,AV BLOCK SECOND DEGREE,NA,NA,HLT_0415,NA,HLGT_0086,NA,CARDIAC DISORDERS,NA,2012-08-26,2012-08-26,2012-08-26T00:00:00Z,NA,H,NA,NA,NA,NA,NA,22,22,NA,NA,NA,NA,Y,NA,N,N,N,N,N,N,MILD,MILD,1,POSSIBLE,POSSIBLE,NA,E10,NOT RECOVERED/NOT RESOLVED,N,N,2012-08-27,2012-08-26T00:00:00Z,0,mg
CDISCPILOT01,01-701-1028,1028,701,USA,AE,2013-07-19,2014-01-14,2013-07-19,2014-01-14,2014-01-14T11:10,NA,NA,NA,NA,NA,NA,NA,NA,NA,NA,NA,NA,2013-07-11,-8,71,YEARS,>64,M,WHITE,White,NOT HISPANIC OR LATINO,Y,Xanomeline High Dose,Xan_Hi,Xanomeline High Dose,Xan_Hi,Xanomeline High Dose,Xanomeline High Dose,2013-07-19,2013-07-19T00:00:00Z,H,2014-01-14,2014-01-14T23:59:59Z,H,COMPLETED,2014-01-14,NA,2013-07-19,2014-01-14,180,NA,NA,NA,NA,1,APPLICATION SITE ERYTHEMA,APPLICATION SITE ERYTHEMA,GENERAL DISORDERS AND ADMINISTRATION SITE CONDITIONS,NA,APPLICATION SITE ERYTHEMA,NA,NA,HLT_0617,NA,HLGT_0152,NA,GENERAL DISORDERS AND ADMINISTRATION SITE CONDITIONS,NA,2013-07-21,2013-07-21,2013-07-21T00:00:00Z,NA,H,NA,NA,NA,NA,NA,3,3,NA,NA,NA,NA,Y,Y,N,N,N,N,N,N,MILD,MILD,1,POSSIBLE,POSSIBLE,NA,E04,NOT RECOVERED/NOT RESOLVED,N,N,2013-08-01,2013-07-21T00:00:00Z,54,mg
CDISCPILOT01,01-701-1028,1028,701,USA,AE,2013-07-19,2014-01-14,2013-07-19,2014-01-14,2014-01-14T11:10,NA,NA,NA,NA,NA,NA,NA,NA,NA,NA,NA,NA,2013-07-11,-8,71,YEARS,>64,M,WHITE,White,NOT HISPANIC OR LATINO,Y,Xanomeline High Dose,Xan_Hi,Xanomeline High Dose,Xan_Hi,Xanomeline High Dose,Xanomeline High Dose,2013-07-19,2013-07-19T00:00:00Z,H,2014-01-14,2014-01-14T23:59:59Z,H,COMPLETED,2014-01-14,NA,2013-07-19,2014-01-14,180,NA,NA,NA,NA,2,APPLICATION SITE PRURITUS,APPLICATION SITE PRURITUS,GENERAL DISORDERS AND ADMINISTRATION SITE CONDITIONS,NA,APPLICATION SITE ITCHING,NA,NA,HLT_0317,NA,HLGT_0338,NA,GENERAL DISORDERS AND ADMINISTRATION SITE CONDITIONS,NA,2013-08-08,2013-08-08,2013-08-08T00:00:00Z,NA,H,NA,NA,NA,NA,NA,21,21,NA,NA,NA,NA,Y,NA,N,N,N,N,N,N,MILD,MILD,1,PROBABLE,PROBABLE,NA,E05,NOT RECOVERED/NOT RESOLVED,N,N,2013-08-14,2013-08-01T00:00:00Z,NA,NA
CDISCPILOT01,01-701-1034,1034,701,USA,AE,2014-07-01,2014-12-30,2014-07-01,2014-12-30,2014-12-30T09:50,NA,NA,NA,NA,NA,NA,NA,NA,NA,NA,NA,NA,2014-06-24,-7,77,YEARS,>64,F,WHITE,White,NOT HISPANIC OR LATINO,Y,Xanomeline High Dose,Xan_Hi,Xanomeline High Dose,Xan_Hi,Xanomeline High Dose,Xanomeline High Dose,2014-07-01,2014-07-01T00:00:00Z,H,2014-12-30,2014-12-30T23:59:59Z,H,COMPLETED,2014-12-30,NA,2014-07-01,2014-12-30,183,NA,NA,NA,NA,1,APPLICATION SITE PRURITUS,APPLICATION SITE PRURITUS,GENERAL DISORDERS AND ADMINISTRATION SITE CONDITIONS,NA,APPLICATION SITE ITCHING,NA,NA,HLT_0317,NA,HLGT_0338,NA,GENERAL DISORDERS AND ADMINISTRATION SITE CONDITIONS,NA,2014-08-27,2014-08-27,2014-08-27T00:00:00Z,NA,H,NA,NA,NA,NA,NA,58,58,NA,NA,NA,NA,Y,Y,N,N,N,N,N,N,MILD,MILD,1,PROBABLE,PROBABLE,NA,E08,NOT RECOVERED/NOT RESOLVED,N,N,2014-09-25,2014-07-15T00:00:00Z,NA,NA
CDISCPILOT01,01-701-1034,1034,701,USA,AE,2014-07-01,2014-12-30,2014-07-01,2014-12-30,2014-12-30T09:50,NA,NA,NA,NA,NA,NA,NA,NA,NA,NA,NA,NA,2014-06-24,-7,77,YEARS,>64,F,WHITE,White,NOT HISPANIC OR LATINO,Y,Xanomeline High Dose,Xan_Hi,Xanomeline High Dose,Xan_Hi,Xanomeline High Dose,Xanomeline High Dose,2014-07-01,2014-07-01T00:00:00Z,H,2014-12-30,2014-12-30T23:59:59Z,H,COMPLETED,2014-12-30,NA,2014-07-01,2014-12-30,183,NA,NA,NA,NA,2,FATIGUE,FATIGUE,GENERAL DISORDERS AND ADMINISTRATION SITE CONDITIONS,NA,FATIGUE,NA,NA,HLT_0043,NA,HLGT_0181,NA,GENERAL DISORDERS AND ADMINISTRATION SITE CONDITIONS,NA,2014-11-02,2014-11-02,2014-11-02T00:00:00Z,NA,H,NA,NA,NA,NA,NA,125,125,NA,NA,NA,NA,Y,NA,N,N,N,N,N,N,MILD,MILD,1,POSSIBLE,POSSIBLE,NA,E07,NOT RECOVERED/NOT RESOLVED,N,N,2014-11-18,2014-07-15T00:00:00Z,NA,NA
CDISCPILOT01,01-701-1047,1047,701,USA,AE,2013-02-12,2013-03-29,2013-02-12,2013-03-09,2013-07-28,NA,2013-07-28,NA,NA,NA,NA,NA,NA,NA,NA,NA,NA,2013-01-22,-21,85,YEARS,>64,F,WHITE,White,NOT HISPANIC OR LATINO,Y,Placebo,Pbo,Placebo,Pbo,Placebo,Placebo,2013-02-12,2013-02-12T00:00:00Z,H,2013-03-09,2013-03-09T23:59:59Z,H,DISCONTINUED,2013-03-29,NA,2013-02-12,2013-04-07,26,NA,NA,NA,NA,1,HIATUS HERNIA,HIATUS HERNIA,GASTROINTESTINAL DISORDERS,NA,HERNIA HIATAL,NA,NA,HLT_0159,NA,HLGT_0109,NA,GASTROINTESTINAL DISORDERS,NA,2013-02-12,2013-02-12,2013-02-12T00:00:00Z,NA,H,2013-02-12,2013-02-12,2013-02-12T23:59:59Z,NA,H,1,1,1,1,1,days,Y,Y,N,N,N,N,N,N,MODERATE,MODERATE,2,NONE,NONE,NA,E06,NOT RECOVERED/NOT RESOLVED,N,N,2013-02-12,2013-02-12T00:00:00Z,0,mg
CDISCPILOT01,01-701-1047,1047,701,USA,AE,2013-02-12,2013-03-29,2013-02-12,2013-03-09,2013-07-28,NA,2013-07-28,NA,NA,NA,NA,NA,NA,NA,NA,NA,NA,2013-01-22,-21,85,YEARS,>64,F,WHITE,White,NOT HISPANIC OR LATINO,Y,Placebo,Pbo,Placebo,Pbo,Placebo,Placebo,2013-02-12,2013-02-12T00:00:00Z,H,2013-03-09,2013-03-09T23:59:59Z,H,DISCONTINUED,2013-03-29,NA,2013-02-12,2013-04-07,26,NA,NA,NA,NA,2,HIATUS HERNIA,HIATUS HERNIA,GASTROINTESTINAL DISORDERS,NA,HERNIA HIATAL,NA,NA,HLT_0159,NA,HLGT_0109,NA,GASTROINTESTINAL DISORDERS,NA,2013-02-12,2013-02-12,2013-02-12T00:00:00Z,NA,H,2013-02-12,2013-02-12,2013-02-12T23:59:59Z,NA,H,1,1,1,1,1,days,Y,NA,N,N,N,N,N,N,MODERATE,MODERATE,2,NONE,NONE,NA,E06,RECOVERED/RESOLVED,N,N,2013-02-25,2013-02-12T00:00:00Z,0,mg
CDISCPILOT01,01-701-1047,1047,701,USA,AE,2013-02-12,2013-03-29,2013-02-12,2013-03-09,2013-07-28,NA,2013-07-28,NA,NA,NA,NA,NA,NA,NA,NA,NA,NA,2013-01-22,-21,85,YEARS,>64,F,WHITE,White,NOT HISPANIC OR LATINO,Y,Placebo,Pbo,Placebo,Pbo,Placebo,Placebo,2013-02-12,2013-02-12T00:00:00Z,H,2013-03-09,2013-03-09T23:59:59Z,H,DISCONTINUED,2013-03-29,NA,2013-02-12,2013-04-07,26,NA,NA,NA,NA,3,UPPER RESPIRATORY TRACT INFECTION,UPPER RESPIRATORY TRACT INFECTION,INFECTIONS AND INFESTATIONS,NA,UPPER RESPIRATORY INFECTION,NA,NA,HLT_0520,NA,HLGT_0489,NA,INFECTIONS AND INFESTATIONS,NA,2013-03-06,2013-03-06,2013-03-06T00:00:00Z,NA,H,NA,NA,NA,NA,NA,23,23,NA,NA,NA,NA,Y,NA,N,N,N,N,N,N,MILD,MILD,1,NONE,NONE,NA,E08,NOT RECOVERED/NOT RESOLVED,N,N,2013-03-10,2013-03-06T00:00:00Z,0,mg
CDISCPILOT01,01-701-1047,1047,701,USA,AE,2013-02-12,2013-03-29,2013-02-12,2013-03-09,2013-07-28,NA,2013-07-28,NA,NA,NA,NA,NA,NA,NA,NA,NA,NA,2013-01-22,-21,85,YEARS,>64,F,WHITE,White,NOT HISPANIC OR LATINO,Y,Placebo,Pbo,Placebo,Pbo,Placebo,Placebo,2013-02-12,2013-02-12T00:00:00Z,H,2013-03-09,2013-03-09T23:59:59Z,H,DISCONTINUED,2013-03-29,NA,2013-02-12,2013-04-07,26,NA,NA,NA,NA,4,BUNDLE BRANCH BLOCK LEFT,BUNDLE BRANCH BLOCK LEFT,CARDIAC DISORDERS,NA,LEFT BUNDLE BRANCH BLOCK,NA,NA,HLT_0281,NA,HLGT_0721,NA,CARDIAC DISORDERS,NA,2013-03-10,2013-03-10,2013-03-10T00:00:00Z,NA,H,NA,NA,NA,NA,NA,27,27,NA,NA,NA,NA,Y,NA,N,N,N,N,N,N,MILD,MILD,1,NONE,NONE,NA,E09,NOT RECOVERED/NOT RESOLVED,N,N,2013-03-10,2013-03-09T00:00:00Z,NA,NA
CDISCPILOT01,01-701-1097,1097,701,USA,AE,2014-01-01,2014-07-09,2014-01-01,2014-07-09,2014-07-09T09:39,NA,NA,NA,NA,NA,NA,NA,NA,NA,NA,NA,NA,2013-12-23,-9,68,YEARS,>64,M,WHITE,White,NOT HISPANIC OR LATINO,Y,Xanomeline Low Dose,Xan_Lo,Xanomeline Low Dose,Xan_Lo,Xanomeline Low Dose,Xanomeline Low Dose,2014-01-01,2014-01-01T00:00:00Z,H,2014-07-09,2014-07-09T23:59:59Z,H,COMPLETED,2014-07-09,NA,2014-01-01,2014-07-09,190,NA,NA,NA,NA,2,PRURITUS GENERALISED,PRURITUS GENERALISED,SKIN AND SUBCUTANEOUS TISSUE DISORDERS,NA,GENERALIZED PRURITUS,NA,NA,HLT_0123,NA,HLGT_0689,NA,SKIN AND SUBCUTANEOUS TISSUE DISORDERS,NA,2014-02-20,2014-02-20,2014-02-20T00:00:00Z,NA,H,2014-02-20,2014-02-20,2014-02-20T23:59:59Z,NA,H,51,51,51,51,1,days,Y,Y,N,N,N,N,N,N,MODERATE,MODERATE,2,POSSIBLE,POSSIBLE,NA,E05,RECOVERED/RESOLVED,N,N,2014-02-26,2014-02-20T00:00:00Z,54,mg
CDISCPILOT01,01-701-1097,1097,701,USA,AE,2014-01-01,2014-07-09,2014-01-01,2014-07-09,2014-07-09T09:39,NA,NA,NA,NA,NA,NA,NA,NA,NA,NA,NA,NA,2013-12-23,-9,68,YEARS,>64,M,WHITE,White,NOT HISPANIC OR LATINO,Y,Xanomeline Low Dose,Xan_Lo,Xanomeline Low Dose,Xan_Lo,Xanomeline Low Dose,Xanomeline Low Dose,2014-01-01,2014-01-01T00:00:00Z,H,2014-07-09,2014-07-09T23:59:59Z,H,COMPLETED,2014-07-09,NA,2014-01-01,2014-07-09,190,NA,NA,NA,NA,10,APPLICATION SITE PRURITUS,APPLICATION SITE PRURITUS,GENERAL DISORDERS AND ADMINISTRATION SITE CONDITIONS,NA,APPLICATION SITE ITCHING,NA,NA,HLT_0317,NA,HLGT_0338,NA,GENERAL DISORDERS AND ADMINISTRATION SITE CONDITIONS,NA,2014-02-21,2014-02-21,2014-02-21T00:00:00Z,NA,H,NA,NA,NA,NA,NA,52,52,NA,NA,NA,NA,Y,NA,N,N,N,N,N,N,MODERATE,MODERATE,2,POSSIBLE,POSSIBLE,NA,E06,NOT RECOVERED/NOT RESOLVED,N,N,2014-05-21,2014-02-21T00:00:00Z,54,mg
CDISCPILOT01,01-701-1097,1097,701,USA,AE,2014-01-01,2014-07-09,2014-01-01,2014-07-09,2014-07-09T09:39,NA,NA,NA,NA,NA,NA,NA,NA,NA,NA,NA,NA,2013-12-23,-9,68,YEARS,>64,M,WHITE,White,NOT HISPANIC OR LATINO,Y,Xanomeline Low Dose,Xan_Lo,Xanomeline Low Dose,Xan_Lo,Xanomeline Low Dose,Xanomeline Low Dose,2014-01-01,2014-01-01T00:00:00Z,H,2014-07-09,2014-07-09T23:59:59Z,H,COMPLETED,2014-07-09,NA,2014-01-01,2014-07-09,190,NA,NA,NA,NA,5,PRURITUS GENERALISED,PRURITUS GENERALISED,SKIN AND SUBCUTANEOUS TISSUE DISORDERS,NA,GENERALIZED PRURITUS,NA,NA,HLT_0123,NA,HLGT_0689,NA,SKIN AND SUBCUTANEOUS TISSUE DISORDERS,NA,2014-03-21,2014-03-21,2014-03-21T00:00:00Z,NA,H,2014-03-21,2014-03-21,2014-03-21T23:59:59Z,NA,H,80,80,80,80,1,days,Y,NA,N,N,N,N,N,N,MODERATE,MODERATE,2,POSSIBLE,POSSIBLE,NA,E08,RECOVERED/RESOLVED,N,N,2014-03-26,2014-03-21T00:00:00Z,54,mg
CDISCPILOT01,01-701-1097,1097,701,USA,AE,2014-01-01,2014-07-09,2014-01-01,2014-07-09,2014-07-09T09:39,NA,NA,NA,NA,NA,NA,NA,NA,NA,NA,NA,NA,2013-12-23,-9,68,YEARS,>64,M,WHITE,White,NOT HISPANIC OR LATINO,Y,Xanomeline Low Dose,Xan_Lo,Xanomeline Low Dose,Xan_Lo,Xanomeline Low Dose,Xanomeline Low Dose,2014-01-01,2014-01-01T00:00:00Z,H,2014-07-09,2014-07-09T23:59:59Z,H,COMPLETED,2014-07-09,NA,2014-01-01,2014-07-09,190,NA,NA,NA,NA,6,PRURITUS GENERALISED,PRURITUS GENERALISED,SKIN AND SUBCUTANEOUS TISSUE DISORDERS,NA,GENERALIZED PRURITUS,NA,NA,HLT_0123,NA,HLGT_0689,NA,SKIN AND SUBCUTANEOUS TISSUE DISORDERS,NA,2014-03-31,2014-03-31,2014-03-31T00:00:00Z,NA,H,2014-03-31,2014-03-31,2014-03-31T23:59:59Z,NA,H,90,90,90,90,1,days,Y,NA,N,N,N,N,N,N,MODERATE,MODERATE,2,POSSIBLE,POSSIBLE,NA,E12,RECOVERED/RESOLVED,N,N,2014-04-23,2014-03-31T00:00:00Z,54,mg
CDISCPILOT01,01-701-1097,1097,701,USA,AE,2014-01-01,2014-07-09,2014-01-01,2014-07-09,2014-07-09T09:39,NA,NA,NA,NA,NA,NA,NA,NA,NA,NA,NA,NA,2013-12-23,-9,68,YEARS,>64,M,WHITE,White,NOT HISPANIC OR LATINO,Y,Xanomeline Low Dose,Xan_Lo,Xanomeline Low Dose,Xan_Lo,Xanomeline Low Dose,Xanomeline Low Dose,2014-01-01,2014-01-01T00:00:00Z,H,2014-07-09,2014-07-09T23:59:59Z,H,COMPLETED,2014-07-09,NA,2014-01-01,2014-07-09,190,NA,NA,NA,NA,7,PRURITUS GENERALISED,PRURITUS GENERALISED,SKIN AND SUBCUTANEOUS TISSUE DISORDERS,NA,GENERALIZED PRURITUS,NA,NA,HLT_0123,NA,HLGT_0689,NA,SKIN AND SUBCUTANEOUS TISSUE DISORDERS,NA,2014-04-19,2014-04-19,2014-04-19T00:00:00Z,NA,H,2014-04-20,2014-04-20,2014-04-20T23:59:59Z,NA,H,109,109,110,110,2,days,Y,NA,N,N,N,N,N,N,MODERATE,MODERATE,2,POSSIBLE,POSSIBLE,NA,E09,RECOVERED/RESOLVED,N,N,2014-04-23,2014-04-19T00:00:00Z,54,mg
CDISCPILOT01,01-701-1097,1097,701,USA,AE,2014-01-01,2014-07-09,2014-01-01,2014-07-09,2014-07-09T09:39,NA,NA,NA,NA,NA,NA,NA,NA,NA,NA,NA,NA,2013-12-23,-9,68,YEARS,>64,M,WHITE,White,NOT HISPANIC OR LATINO,Y,Xanomeline Low Dose,Xan_Lo,Xanomeline Low Dose,Xan_Lo,Xanomeline Low Dose,Xanomeline Low Dose,2014-01-01,2014-01-01T00:00:00Z,H,2014-07-09,2014-07-09T23:59:59Z,H,COMPLETED,2014-07-09,NA,2014-01-01,2014-07-09,190,NA,NA,NA,NA,1,ERYTHEMA,ERYTHEMA,SKIN AND SUBCUTANEOUS TISSUE DISORDERS,NA,ERYTHEMA,NA,NA,HLT_0284,NA,HLGT_0192,NA,SKIN AND SUBCUTANEOUS TISSUE DISORDERS,NA,2014-01-03,2014-01-03,2014-01-03T00:00:00Z,NA,H,NA,NA,NA,NA,NA,3,3,NA,NA,NA,NA,Y,NA,N,N,N,N,N,N,MILD,MILD,1,POSSIBLE,POSSIBLE,NA,E04,NOT RECOVERED/NOT RESOLVED,N,N,2014-01-15,2014-01-03T00:00:00Z,54,mg
CDISCPILOT01,01-701-1097,1097,701,USA,AE,2014-01-01,2014-07-09,2014-01-01,2014-07-09,2014-07-09T09:39,NA,NA,NA,NA,NA,NA,NA,NA,NA,NA,NA,NA,2013-12-23,-9,68,YEARS,>64,M,WHITE,White,NOT HISPANIC OR LATINO,Y,Xanomeline Low Dose,Xan_Lo,Xanomeline Low Dose,Xan_Lo,Xanomeline Low Dose,Xanomeline Low Dose,2014-01-01,2014-01-01T00:00:00Z,H,2014-07-09,2014-07-09T23:59:59Z,H,COMPLETED,2014-07-09,NA,2014-01-01,2014-07-09,190,NA,NA,NA,NA,3,APPLICATION SITE VESICLES,APPLICATION SITE VESICLES,GENERAL DISORDERS AND ADMINISTRATION SITE CONDITIONS,NA,APPLICATION SITE BLISTER,NA,NA,HLT_0180,NA,HLGT_0576,NA,GENERAL DISORDERS AND ADMINISTRATION SITE CONDITIONS,NA,2014-02-20,2014-02-20,2014-02-20T00:00:00Z,NA,H,2014-02-22,2014-02-22,2014-02-22T23:59:59Z,NA,H,51,51,53,53,3,days,Y,NA,N,N,N,N,N,N,MILD,MILD,1,PROBABLE,PROBABLE,NA,E07,RECOVERED/RESOLVED,N,N,2014-02-26,2014-02-20T00:00:00Z,54,mg
CDISCPILOT01,01-701-1097,1097,701,USA,AE,2014-01-01,2014-07-09,2014-01-01,2014-07-09,2014-07-09T09:39,NA,NA,NA,NA,NA,NA,NA,NA,NA,NA,NA,NA,2013-12-23,-9,68,YEARS,>64,M,WHITE,White,NOT HISPANIC OR LATINO,Y,Xanomeline Low Dose,Xan_Lo,Xanomeline Low Dose,Xan_Lo,Xanomeline Low Dose,Xanomeline Low Dose,2014-01-01,2014-01-01T00:00:00Z,H,2014-07-09,2014-07-09T23:59:59Z,H,COMPLETED,2014-07-09,NA,2014-01-01,2014-07-09,190,NA,NA,NA,NA,4,APPLICATION SITE PRURITUS,APPLICATION SITE PRURITUS,GENERAL DISORDERS AND ADMINISTRATION SITE CONDITIONS,NA,APPLICATION SITE ITCHING,NA,NA,HLT_0317,NA,HLGT_0338,NA,GENERAL DISORDERS AND ADMINISTRATION SITE CONDITIONS,NA,2014-02-21,2014-02-21,2014-02-21T00:00:00Z,NA,H,NA,NA,NA,NA,NA,52,52,NA,NA,NA,NA,Y,NA,N,N,N,N,N,N,MILD,MILD,1,POSSIBLE,POSSIBLE,NA,E06,NOT RECOVERED/NOT RESOLVED,N,N,2014-02-26,2014-02-21T00:00:00Z,54,mg
CDISCPILOT01,01-701-1097,1097,701,USA,AE,2014-01-01,2014-07-09,2014-01-01,2014-07-09,2014-07-09T09:39,NA,NA,NA,NA,NA,NA,NA,NA,NA,NA,NA,NA,2013-12-23,-9,68,YEARS,>64,M,WHITE,White,NOT HISPANIC OR LATINO,Y,Xanomeline Low Dose,Xan_Lo,Xanomeline Low Dose,Xan_Lo,Xanomeline Low Dose,Xanomeline Low Dose,2014-01-01,2014-01-01T00:00:00Z,H,2014-07-09,2014-07-09T23:59:59Z,H,COMPLETED,2014-07-09,NA,2014-01-01,2014-07-09,190,NA,NA,NA,NA,8,PHARYNGOLARYNGEAL PAIN,PHARYNGOLARYNGEAL PAIN,"RESPIRATORY, THORACIC AND MEDIASTINAL DISORDERS",NA,SORE THROAT,NA,NA,HLT_0130,NA,HLGT_0402,NA,"RESPIRATORY, THORACIC AND MEDIASTINAL DISORDERS",NA,2014-04-19,2014-04-19,2014-04-19T00:00:00Z,NA,H,2014-04-22,2014-04-22,2014-04-22T23:59:59Z,NA,H,109,109,112,112,4,days,Y,NA,N,N,N,N,N,N,MILD,MILD,1,NONE,NONE,NA,E10,RECOVERED/RESOLVED,N,N,2014-04-23,2014-04-19T00:00:00Z,54,mg
CDISCPILOT01,01-701-1097,1097,701,USA,AE,2014-01-01,2014-07-09,2014-01-01,2014-07-09,2014-07-09T09:39,NA,NA,NA,NA,NA,NA,NA,NA,NA,NA,NA,NA,2013-12-23,-9,68,YEARS,>64,M,WHITE,White,NOT HISPANIC OR LATINO,Y,Xanomeline Low Dose,Xan_Lo,Xanomeline Low Dose,Xan_Lo,Xanomeline Low Dose,Xanomeline Low Dose,2014-01-01,2014-01-01T00:00:00Z,H,2014-07-09,2014-07-09T23:59:59Z,H,COMPLETED,2014-07-09,NA,2014-01-01,2014-07-09,190,NA,NA,NA,NA,9,NASAL CONGESTION,NASAL CONGESTION,"RESPIRATORY, THORACIC AND MEDIASTINAL DISORDERS",NA,NASAL CONGESTION,NA,NA,HLT_0118,NA,HLGT_0549,NA,"RESPIRATORY, THORACIC AND MEDIASTINAL DISORDERS",NA,2014-04-19,2014-04-19,2014-04-19T00:00:00Z,NA,H,2014-04-22,2014-04-22,2014-04-22T23:59:59Z,NA,H,109,109,112,112,4,days,Y,NA,N,N,N,N,N,N,MILD,MILD,1,NONE,NONE,NA,E11,RECOVERED/RESOLVED,N,N,2014-04-23,2014-04-19T00:00:00Z,54,mg
CDISCPILOT01,01-701-1111,1111,701,USA,AE,2012-09-07,2012-09-17,2012-09-07,2012-09-16,2013-02-22,NA,2013-02-22,NA,NA,NA,NA,NA,NA,NA,NA,NA,NA,2012-08-25,-13,81,YEARS,>64,F,WHITE,White,NOT HISPANIC OR LATINO,Y,Xanomeline Low Dose,Xan_Lo,Xanomeline Low Dose,Xan_Lo,Xanomeline Low Dose,Xanomeline Low Dose,2012-09-07,2012-09-07T00:00:00Z,H,2012-09-16,2012-09-16T23:59:59Z,H,DISCONTINUED,2012-09-17,NA,2012-09-07,2012-09-17,10,NA,NA,NA,NA,7,ARTHRALGIA,ARTHRALGIA,MUSCULOSKELETAL AND CONNECTIVE TISSUE DISORDERS,NA,GENERALIZED JOINT PAIN,NA,NA,HLT_0375,NA,HLGT_0610,NA,MUSCULOSKELETAL AND CONNECTIVE TISSUE DISORDERS,NA,2012-09-13,2012-09-13,2012-09-13T00:00:00Z,NA,H,NA,NA,NA,NA,NA,7,7,NA,NA,NA,NA,Y,Y,N,N,N,N,N,N,MODERATE,MODERATE,2,NONE,NONE,NA,E16,NOT RECOVERED/NOT RESOLVED,N,N,2012-09-17,2012-09-13T00:00:00Z,54,mg
CDISCPILOT01,01-701-1111,1111,701,USA,AE,2012-09-07,2012-09-17,2012-09-07,2012-09-16,2013-02-22,NA,2013-02-22,NA,NA,NA,NA,NA,NA,NA,NA,NA,NA,2012-08-25,-13,81,YEARS,>64,F,WHITE,White,NOT HISPANIC OR LATINO,Y,Xanomeline Low Dose,Xan_Lo,Xanomeline Low Dose,Xan_Lo,Xanomeline Low Dose,Xanomeline Low Dose,2012-09-07,2012-09-07T00:00:00Z,H,2012-09-16,2012-09-16T23:59:59Z,H,DISCONTINUED,2012-09-17,NA,2012-09-07,2012-09-17,10,NA,NA,NA,NA,8,CELLULITIS,CELLULITIS,INFECTIONS AND INFESTATIONS,NA,CELLULITIS OF LEG,NA,NA,HLT_0613,NA,HLGT_0066,NA,INFECTIONS AND INFESTATIONS,NA,2012-09-13,2012-09-13,2012-09-13T00:00:00Z,NA,H,NA,NA,NA,NA,NA,7,7,NA,NA,NA,NA,Y,NA,N,N,N,N,N,N,MODERATE,MODERATE,2,NONE,NONE,NA,E17,NOT RECOVERED/NOT RESOLVED,N,N,2012-09-17,2012-09-13T00:00:00Z,54,mg
CDISCPILOT01,01-701-1111,1111,701,USA,AE,2012-09-07,2012-09-17,2012-09-07,2012-09-16,2013-02-22,NA,2013-02-22,NA,NA,NA,NA,NA,NA,NA,NA,NA,NA,2012-08-25,-13,81,YEARS,>64,F,WHITE,White,NOT HISPANIC OR LATINO,Y,Xanomeline Low Dose,Xan_Lo,Xanomeline Low Dose,Xan_Lo,Xanomeline Low Dose,Xanomeline Low Dose,2012-09-07,2012-09-07T00:00:00Z,H,2012-09-16,2012-09-16T23:59:59Z,H,DISCONTINUED,2012-09-17,NA,2012-09-07,2012-09-17,10,NA,NA,NA,NA,6,MICTURITION URGENCY,MICTURITION URGENCY,RENAL AND URINARY DISORDERS,NA,URINARY URGENCY,NA,NA,HLT_0294,NA,HLGT_0483,NA,RENAL AND URINARY DISORDERS,NA,2012-09-07,2012-09-07,2012-09-07T00:00:00Z,NA,H,NA,NA,NA,NA,NA,1,1,NA,NA,NA,NA,Y,NA,N,N,N,N,N,N,MILD,MILD,1,NONE,NONE,NA,E18,NOT RECOVERED/NOT RESOLVED,N,N,2012-09-17,2012-09-07T00:00:00Z,54,mg
CDISCPILOT01,01-701-1115,1115,701,USA,AE,2012-11-30,2013-01-23,2012-11-30,2013-01-23,2013-05-20,NA,2013-05-20,NA,NA,NA,NA,NA,NA,NA,NA,NA,NA,2012-11-23,-7,84,YEARS,>64,M,WHITE,White,NOT HISPANIC OR LATINO,Y,Xanomeline Low Dose,Xan_Lo,Xanomeline Low Dose,Xan_Lo,Xanomeline Low Dose,Xanomeline Low Dose,2012-11-30,2012-11-30T00:00:00Z,H,2013-01-23,2013-01-23T23:59:59Z,H,DISCONTINUED,2013-01-23,NA,2012-11-30,2013-01-23,55,NA,NA,NA,NA,5,APPLICATION SITE ERYTHEMA,APPLICATION SITE ERYTHEMA,GENERAL DISORDERS AND ADMINISTRATION SITE CONDITIONS,NA,APPLICATION SITE REDNESS,NA,NA,HLT_0617,NA,HLGT_0152,NA,GENERAL DISORDERS AND ADMINISTRATION SITE CONDITIONS,NA,2012-12-02,2012-12-02,2012-12-02T00:00:00Z,NA,H,NA,NA,NA,NA,NA,3,3,NA,NA,NA,NA,Y,Y,N,N,N,N,N,N,MODERATE,MODERATE,2,PROBABLE,PROBABLE,NA,E09,NOT RECOVERED/NOT RESOLVED,N,N,2013-01-23,2012-12-02T00:00:00Z,54,mg
CDISCPILOT01,01-701-1115,1115,701,USA,AE,2012-11-30,2013-01-23,2012-11-30,2013-01-23,2013-05-20,NA,2013-05-20,NA,NA,NA,NA,NA,NA,NA,NA,NA,NA,2012-11-23,-7,84,YEARS,>64,M,WHITE,White,NOT HISPANIC OR LATINO,Y,Xanomeline Low Dose,Xan_Lo,Xanomeline Low Dose,Xan_Lo,Xanomeline Low Dose,Xanomeline Low Dose,2012-11-30,2012-11-30T00:00:00Z,H,2013-01-23,2013-01-23T23:59:59Z,H,DISCONTINUED,2013-01-23,NA,2012-11-30,2013-01-23,55,NA,NA,NA,NA,6,APPLICATION SITE PRURITUS,APPLICATION SITE PRURITUS,GENERAL DISORDERS AND ADMINISTRATION SITE CONDITIONS,NA,APPLICATION SITE ITCHING,NA,NA,HLT_0317,NA,HLGT_0338,NA,GENERAL DISORDERS AND ADMINISTRATION SITE CONDITIONS,NA,2012-12-02,2012-12-02,2012-12-02T00:00:00Z,NA,H,NA,NA,NA,NA,NA,3,3,NA,NA,NA,NA,Y,NA,N,N,N,N,N,N,MODERATE,MODERATE,2,PROBABLE,PROBABLE,NA,E11,NOT RECOVERED/NOT RESOLVED,N,N,2013-01-23,2012-12-02T00:00:00Z,54,mg
CDISCPILOT01,01-701-1115,1115,701,USA,AE,2012-11-30,2013-01-23,2012-11-30,2013-01-23,2013-05-20,NA,2013-05-20,NA,NA,NA,NA,NA,NA,NA,NA,NA,NA,2012-11-23,-7,84,YEARS,>64,M,WHITE,White,NOT HISPANIC OR LATINO,Y,Xanomeline Low Dose,Xan_Lo,Xanomeline Low Dose,Xan_Lo,Xanomeline Low Dose,Xanomeline Low Dose,2012-11-30,2012-11-30T00:00:00Z,H,2013-01-23,2013-01-23T23:59:59Z,H,DISCONTINUED,2013-01-23,NA,2012-11-30,2013-01-23,55,NA,NA,NA,NA,7,FATIGUE,FATIGUE,GENERAL DISORDERS AND ADMINISTRATION SITE CONDITIONS,NA,FATIGUE,NA,NA,HLT_0043,NA,HLGT_0181,NA,GENERAL DISORDERS AND ADMINISTRATION SITE CONDITIONS,NA,2013-01-14,2013-01-14,2013-01-14T00:00:00Z,NA,H,NA,NA,NA,NA,NA,46,46,NA,NA,NA,NA,Y,NA,N,N,N,N,N,N,MODERATE,MODERATE,2,REMOTE,REMOTE,NA,E13,NOT RECOVERED/NOT RESOLVED,N,N,2013-01-23,2013-01-14T00:00:00Z,54,mg
CDISCPILOT01,01-701-1115,1115,701,USA,AE,2012-11-30,2013-01-23,2012-11-30,2013-01-23,2013-05-20,NA,2013-05-20,NA,NA,NA,NA,NA,NA,NA,NA,NA,NA,2012-11-23,-7,84,YEARS,>64,M,WHITE,White,NOT HISPANIC OR LATINO,Y,Xanomeline Low Dose,Xan_Lo,Xanomeline Low Dose,Xan_Lo,Xanomeline Low Dose,Xanomeline Low Dose,2012-11-30,2012-11-30T00:00:00Z,H,2013-01-23,2013-01-23T23:59:59Z,H,DISCONTINUED,2013-01-23,NA,2012-11-30,2013-01-23,55,NA,NA,NA,NA,8,APPLICATION SITE IRRITATION,APPLICATION SITE IRRITATION,GENERAL DISORDERS AND ADMINISTRATION SITE CONDITIONS,NA,APPLICATION SITE BURNING,NA,NA,HLT_0061,NA,HLGT_0346,NA,GENERAL DISORDERS AND ADMINISTRATION SITE CONDITIONS,NA,2013-01-19,2013-01-19,2013-01-19T00:00:00Z,NA,H,NA,NA,NA,NA,NA,51,51,NA,NA,NA,NA,Y,NA,N,N,N,N,N,N,MODERATE,MODERATE,2,PROBABLE,PROBABLE,NA,E12,NOT RECOVERED/NOT RESOLVED,N,N,2013-01-23,2013-01-19T00:00:00Z,54,mg
CDISCPILOT01,01-701-1115,1115,701,USA,AE,2012-11-30,2013-01-23,2012-11-30,2013-01-23,2013-05-20,NA,2013-05-20,NA,NA,NA,NA,NA,NA,NA,NA,NA,NA,2012-11-23,-7,84,YEARS,>64,M,WHITE,White,NOT HISPANIC OR LATINO,Y,Xanomeline Low Dose,Xan_Lo,Xanomeline Low Dose,Xan_Lo,Xanomeline Low Dose,Xanomeline Low Dose,2012-11-30,2012-11-30T00:00:00Z,H,2013-01-23,2013-01-23T23:59:59Z,H,DISCONTINUED,2013-01-23,NA,2012-11-30,2013-01-23,55,NA,NA,NA,NA,9,APPLICATION SITE DERMATITIS,APPLICATION SITE DERMATITIS,GENERAL DISORDERS AND ADMINISTRATION SITE CONDITIONS,NA,APPLICATION SITE RASH,NA,NA,HLT_0343,NA,HLGT_0241,NA,GENERAL DISORDERS AND ADMINISTRATION SITE CONDITIONS,NA,2013-01-19,2013-01-19,2013-01-19T00:00:00Z,NA,H,NA,NA,NA,NA,NA,51,51,NA,NA,NA,NA,Y,NA,N,N,N,N,N,N,MODERATE,MODERATE,2,PROBABLE,PROBABLE,NA,E14,NOT RECOVERED/NOT RESOLVED,N,N,2013-01-23,2013-01-19T00:00:00Z,54,mg
CDISCPILOT01,01-701-1115,1115,701,USA,AE,2012-11-30,2013-01-23,2012-11-30,2013-01-23,2013-05-20,NA,2013-05-20,NA,NA,NA,NA,NA,NA,NA,NA,NA,NA,2012-11-23,-7,84,YEARS,>64,M,WHITE,White,NOT HISPANIC OR LATINO,Y,Xanomeline Low Dose,Xan_Lo,Xanomeline Low Dose,Xan_Lo,Xanomeline Low Dose,Xanomeline Low Dose,2012-11-30,2012-11-30T00:00:00Z,H,2013-01-23,2013-01-23T23:59:59Z,H,DISCONTINUED,2013-01-23,NA,2012-11-30,2013-01-23,55,NA,NA,NA,NA,1,APPLICATION SITE ERYTHEMA,APPLICATION SITE ERYTHEMA,GENERAL DISORDERS AND ADMINISTRATION SITE CONDITIONS,NA,APPLICATION SITE REDNESS,NA,NA,HLT_0617,NA,HLGT_0152,NA,GENERAL DISORDERS AND ADMINISTRATION SITE CONDITIONS,NA,2012-12-02,2012-12-02,2012-12-02T00:00:00Z,NA,H,NA,NA,NA,NA,NA,3,3,NA,NA,NA,NA,Y,NA,N,N,N,N,N,N,MILD,MILD,1,PROBABLE,PROBABLE,NA,E09,NOT RECOVERED/NOT RESOLVED,N,N,2012-12-13,2012-12-02T00:00:00Z,54,mg
CDISCPILOT01,01-701-1115,1115,701,USA,AE,2012-11-30,2013-01-23,2012-11-30,2013-01-23,2013-05-20,NA,2013-05-20,NA,NA,NA,NA,NA,NA,NA,NA,NA,NA,2012-11-23,-7,84,YEARS,>64,M,WHITE,White,NOT HISPANIC OR LATINO,Y,Xanomeline Low Dose,Xan_Lo,Xanomeline Low Dose,Xan_Lo,Xanomeline Low Dose,Xanomeline Low Dose,2012-11-30,2012-11-30T00:00:00Z,H,2013-01-23,2013-01-23T23:59:59Z,H,DISCONTINUED,2013-01-23,NA,2012-11-30,2013-01-23,55,NA,NA,NA,NA,2,APPLICATION SITE PRURITUS,APPLICATION SITE PRURITUS,GENERAL DISORDERS AND ADMINISTRATION SITE CONDITIONS,NA,APPLICATION SITE ITCHING,NA,NA,HLT_0317,NA,HLGT_0338,NA,GENERAL DISORDERS AND ADMINISTRATION SITE CONDITIONS,NA,2012-12-02,2012-12-02,2012-12-02T00:00:00Z,NA,H,NA,NA,NA,NA,NA,3,3,NA,NA,NA,NA,Y,NA,N,N,N,N,N,N,MILD,MILD,1,PROBABLE,PROBABLE,NA,E11,NOT RECOVERED/NOT RESOLVED,N,N,2012-12-13,2012-12-02T00:00:00Z,54,mg
CDISCPILOT01,01-701-1115,1115,701,USA,AE,2012-11-30,2013-01-23,2012-11-30,2013-01-23,2013-05-20,NA,2013-05-20,NA,NA,NA,NA,NA,NA,NA,NA,NA,NA,2012-11-23,-7,84,YEARS,>64,M,WHITE,White,NOT HISPANIC OR LATINO,Y,Xanomeline Low Dose,Xan_Lo,Xanomeline Low Dose,Xan_Lo,Xanomeline Low Dose,Xanomeline Low Dose,2012-11-30,2012-11-30T00:00:00Z,H,2013-01-23,2013-01-23T23:59:59Z,H,DISCONTINUED,2013-01-23,NA,2012-11-30,2013-01-23,55,NA,NA,NA,NA,3,APPLICATION SITE IRRITATION,APPLICATION SITE IRRITATION,GENERAL DISORDERS AND ADMINISTRATION SITE CONDITIONS,NA,APPLICATION SITE BURNING,NA,NA,HLT_0061,NA,HLGT_0346,NA,GENERAL DISORDERS AND ADMINISTRATION SITE CONDITIONS,NA,2012-12-26,2012-12-26,2012-12-26T00:00:00Z,NA,H,2012-12-26,2012-12-26,2012-12-26T23:59:59Z,NA,H,27,27,27,27,1,days,Y,NA,N,N,N,N,N,N,MILD,MILD,1,POSSIBLE,POSSIBLE,NA,E10,NOT RECOVERED/NOT RESOLVED,N,N,2012-12-26,2012-12-26T00:00:00Z,54,mg
CDISCPILOT01,01-701-1115,1115,701,USA,AE,2012-11-30,2013-01-23,2012-11-30,2013-01-23,2013-05-20,NA,2013-05-20,NA,NA,NA,NA,NA,NA,NA,NA,NA,NA,2012-11-23,-7,84,YEARS,>64,M,WHITE,White,NOT HISPANIC OR LATINO,Y,Xanomeline Low Dose,Xan_Lo,Xanomeline Low Dose,Xan_Lo,Xanomeline Low Dose,Xanomeline Low Dose,2012-11-30,2012-11-30T00:00:00Z,H,2013-01-23,2013-01-23T23:59:59Z,H,DISCONTINUED,2013-01-23,NA,2012-11-30,2013-01-23,55,NA,NA,NA,NA,4,APPLICATION SITE IRRITATION,APPLICATION SITE IRRITATION,GENERAL DISORDERS AND ADMINISTRATION SITE CONDITIONS,NA,APPLICATION SITE BURNING,NA,NA,HLT_0061,NA,HLGT_0346,NA,GENERAL DISORDERS AND ADMINISTRATION SITE CONDITIONS,NA,2012-12-26,2012-12-26,2012-12-26T00:00:00Z,NA,H,2012-12-26,2012-12-26,2012-12-26T23:59:59Z,NA,H,27,27,27,27,1,days,Y,NA,N,N,N,N,N,N,MILD,MILD,1,POSSIBLE,POSSIBLE,NA,E10,RECOVERED/RESOLVED,N,N,2012-12-28,2012-12-26T00:00:00Z,54,mg
CDISCPILOT01,01-701-1130,1130,701,USA,AE,2014-02-15,2014-08-16,2014-02-15,2014-08-16,2014-08-16T13:10,NA,NA,NA,NA,NA,NA,NA,NA,NA,NA,NA,NA,2014-02-09,-6,84,YEARS,>64,M,WHITE,White,NOT HISPANIC OR LATINO,Y,Placebo,Pbo,Placebo,Pbo,Placebo,Placebo,2014-02-15,2014-02-15T00:00:00Z,H,2014-08-16,2014-08-16T23:59:59Z,H,COMPLETED,2014-08-16,NA,2014-02-15,2014-08-16,183,NA,NA,NA,NA,1,URINARY TRACT INFECTION,URINARY TRACT INFECTION,INFECTIONS AND INFESTATIONS,NA,URINARY TRACT INFECTION,NA,NA,HLT_0161,NA,HLGT_0093,NA,INFECTIONS AND INFESTATIONS,NA,2014-03-09,2014-03-09,2014-03-09T00:00:00Z,NA,H,2014-03-16,2014-03-16,2014-03-16T23:59:59Z,NA,H,23,23,30,30,8,days,Y,Y,N,N,N,N,N,N,MILD,MILD,1,NONE,NONE,NA,E06,NOT RECOVERED/NOT RESOLVED,N,N,2014-03-15,2014-03-09T00:00:00Z,0,mg
CDISCPILOT01,01-701-1130,1130,701,USA,AE,2014-02-15,2014-08-16,2014-02-15,2014-08-16,2014-08-16T13:10,NA,NA,NA,NA,NA,NA,NA,NA,NA,NA,NA,NA,2014-02-09,-6,84,YEARS,>64,M,WHITE,White,NOT HISPANIC OR LATINO,Y,Placebo,Pbo,Placebo,Pbo,Placebo,Placebo,2014-02-15,2014-02-15T00:00:00Z,H,2014-08-16,2014-08-16T23:59:59Z,H,COMPLETED,2014-08-16,NA,2014-02-15,2014-08-16,183,NA,NA,NA,NA,2,PYREXIA,PYREXIA,GENERAL DISORDERS AND ADMINISTRATION SITE CONDITIONS,NA,FEVER,NA,NA,HLT_0310,NA,HLGT_0652,NA,GENERAL DISORDERS AND ADMINISTRATION SITE CONDITIONS,NA,2014-03-09,2014-03-09,2014-03-09T00:00:00Z,NA,H,2014-03-09,2014-03-09,2014-03-09T23:59:59Z,NA,H,23,23,23,23,1,days,Y,NA,N,N,N,N,N,N,MILD,MILD,1,NONE,NONE,NA,E07,RECOVERED/RESOLVED,N,N,2014-03-15,2014-03-09T00:00:00Z,0,mg
CDISCPILOT01,01-701-1130,1130,701,USA,AE,2014-02-15,2014-08-16,2014-02-15,2014-08-16,2014-08-16T13:10,NA,NA,NA,NA,NA,NA,NA,NA,NA,NA,NA,NA,2014-02-09,-6,84,YEARS,>64,M,WHITE,White,NOT HISPANIC OR LATINO,Y,Placebo,Pbo,Placebo,Pbo,Placebo,Placebo,2014-02-15,2014-02-15T00:00:00Z,H,2014-08-16,2014-08-16T23:59:59Z,H,COMPLETED,2014-08-16,NA,2014-02-15,2014-08-16,183,NA,NA,NA,NA,3,URINARY TRACT INFECTION,URINARY TRACT INFECTION,INFECTIONS AND INFESTATIONS,NA,URINARY TRACT INFECTION,NA,NA,HLT_0161,NA,HLGT_0093,NA,INFECTIONS AND INFESTATIONS,NA,2014-03-09,2014-03-09,2014-03-09T00:00:00Z,NA,H,2014-03-16,2014-03-16,2014-03-16T23:59:59Z,NA,H,23,23,30,30,8,days,Y,NA,N,N,N,N,N,N,MILD,MILD,1,NONE,NONE,NA,E06,RECOVERED/RESOLVED,N,N,2014-03-17,2014-03-09T00:00:00Z,0,mg
CDISCPILOT01,01-701-1130,1130,701,USA,AE,2014-02-15,2014-08-16,2014-02-15,2014-08-16,2014-08-16T13:10,NA,NA,NA,NA,NA,NA,NA,NA,NA,NA,NA,NA,2014-02-09,-6,84,YEARS,>64,M,WHITE,White,NOT HISPANIC OR LATINO,Y,Placebo,Pbo,Placebo,Pbo,Placebo,Placebo,2014-02-15,2014-02-15T00:00:00Z,H,2014-08-16,2014-08-16T23:59:59Z,H,COMPLETED,2014-08-16,NA,2014-02-15,2014-08-16,183,NA,NA,NA,NA,4,EYE SWELLING,EYE SWELLING,EYE DISORDERS,NA,EYES SWOLLEN,NA,NA,HLT_0008,NA,HLGT_0466,NA,EYE DISORDERS,NA,2014-05-09,2014-05-09,2014-05-09T00:00:00Z,NA,H,2014-05-09,2014-05-09,2014-05-09T23:59:59Z,NA,H,84,84,84,84,1,days,Y,NA,N,N,N,N,N,N,MILD,MILD,1,NONE,NONE,NA,E08,RECOVERED/RESOLVED,N,N,2014-05-16,2014-05-09T00:00:00Z,0,mg
CDISCPILOT01,01-701-1130,1130,701,USA,AE,2014-02-15,2014-08-16,2014-02-15,2014-08-16,2014-08-16T13:10,NA,NA,NA,NA,NA,NA,NA,NA,NA,NA,NA,NA,2014-02-09,-6,84,YEARS,>64,M,WHITE,White,NOT HISPANIC OR LATINO,Y,Placebo,Pbo,Placebo,Pbo,Placebo,Placebo,2014-02-15,2014-02-15T00:00:00Z,H,2014-08-16,2014-08-16T23:59:59Z,H,COMPLETED,2014-08-16,NA,2014-02-15,2014-08-16,183,NA,NA,NA,NA,5,EYE ALLERGY,EYE ALLERGY,EYE DISORDERS,NA,EYE ALLERGY,NA,NA,HLT_0256,NA,HLGT_0071,NA,EYE DISORDERS,NA,2014-05-09,2014-05-09,2014-05-09T00:00:00Z,NA,H,2014-05-09,2014-05-09,2014-05-09T23:59:59Z,NA,H,84,84,84,84,1,days,Y,NA,N,N,N,N,N,N,MILD,MILD,1,NONE,NONE,NA,E09,RECOVERED/RESOLVED,N,N,2014-05-16,2014-05-09T00:00:00Z,0,mg
CDISCPILOT01,01-701-1130,1130,701,USA,AE,2014-02-15,2014-08-16,2014-02-15,2014-08-16,2014-08-16T13:10,NA,NA,NA,NA,NA,NA,NA,NA,NA,NA,NA,NA,2014-02-09,-6,84,YEARS,>64,M,WHITE,White,NOT HISPANIC OR LATINO,Y,Placebo,Pbo,Placebo,Pbo,Placebo,Placebo,2014-02-15,2014-02-15T00:00:00Z,H,2014-08-16,2014-08-16T23:59:59Z,H,COMPLETED,2014-08-16,NA,2014-02-15,2014-08-16,183,NA,NA,NA,NA,6,EYE PRURITUS,EYE PRURITUS,EYE DISORDERS,NA,EYE ITCHING,NA,NA,HLT_0523,NA,HLGT_0240,NA,EYE DISORDERS,NA,2014-05-22,2014-05-22,2014-05-22T00:00:00Z,NA,H,NA,NA,NA,NA,NA,97,97,NA,NA,NA,NA,Y,NA,N,N,N,N,N,N,MILD,MILD,1,REMOTE,REMOTE,NA,E10,NOT RECOVERED/NOT RESOLVED,N,N,2014-06-07,2014-05-22T00:00:00Z,0,mg
CDISCPILOT01,01-701-1130,1130,701,USA,AE,2014-02-15,2014-08-16,2014-02-15,2014-08-16,2014-08-16T13:10,NA,NA,NA,NA,NA,NA,NA,NA,NA,NA,NA,NA,2014-02-09,-6,84,YEARS,>64,M,WHITE,White,NOT HISPANIC OR LATINO,Y,Placebo,Pbo,Placebo,Pbo,Placebo,Placebo,2014-02-15,2014-02-15T00:00:00Z,H,2014-08-16,2014-08-16T23:59:59Z,H,COMPLETED,2014-08-16,NA,2014-02-15,2014-08-16,183,NA,NA,NA,NA,7,PRURITUS,PRURITUS,SKIN AND SUBCUTANEOUS TISSUE DISORDERS,NA,ITCHING BOTH HANDS,NA,NA,HLT_0778,NA,HLGT_0695,NA,SKIN AND SUBCUTANEOUS TISSUE DISORDERS,NA,2014-05-22,2014-05-22,2014-05-22T00:00:00Z,NA,H,NA,NA,NA,NA,NA,97,97,NA,NA,NA,NA,Y,NA,N,N,N,N,N,N,MILD,MILD,1,REMOTE,REMOTE,NA,E11,NOT RECOVERED/NOT RESOLVED,N,N,2014-06-07,2014-05-22T00:00:00Z,0,mg
CDISCPILOT01,01-701-1130,1130,701,USA,AE,2014-02-15,2014-08-16,2014-02-15,2014-08-16,2014-08-16T13:10,NA,NA,NA,NA,NA,NA,NA,NA,NA,NA,NA,NA,2014-02-09,-6,84,YEARS,>64,M,WHITE,White,NOT HISPANIC OR LATINO,Y,Placebo,Pbo,Placebo,Pbo,Placebo,Placebo,2014-02-15,2014-02-15T00:00:00Z,H,2014-08-16,2014-08-16T23:59:59Z,H,COMPLETED,2014-08-16,NA,2014-02-15,2014-08-16,183,NA,NA,NA,NA,8,NASAL CONGESTION,NASAL CONGESTION,"RESPIRATORY, THORACIC AND MEDIASTINAL DISORDERS",NA,NASAL CONGESTION,NA,NA,HLT_0118,NA,HLGT_0549,NA,"RESPIRATORY, THORACIC AND MEDIASTINAL DISORDERS",NA,2014-05-22,2014-05-22,2014-05-22T00:00:00Z,NA,H,NA,NA,NA,NA,NA,97,97,NA,NA,NA,NA,Y,NA,N,N,N,N,N,N,MILD,MILD,1,REMOTE,REMOTE,NA,E12,NOT RECOVERED/NOT RESOLVED,N,N,2014-06-07,2014-05-22T00:00:00Z,0,mg
CDISCPILOT01,01-701-1133,1133,701,USA,AE,2012-10-28,2013-04-29,2012-10-28,2013-04-28,2013-04-29T10:13,NA,NA,NA,NA,NA,NA,NA,NA,NA,NA,NA,NA,2012-10-23,-5,81,YEARS,>64,F,WHITE,White,NOT HISPANIC OR LATINO,Y,Xanomeline High Dose,Xan_Hi,Xanomeline High Dose,Xan_Hi,Xanomeline High Dose,Xanomeline High Dose,2012-10-28,2012-10-28T00:00:00Z,H,2013-04-28,2013-04-28T23:59:59Z,H,COMPLETED,2013-04-29,NA,2012-10-28,2013-04-29,183,NA,NA,NA,NA,3,APPLICATION SITE ERYTHEMA,APPLICATION SITE ERYTHEMA,GENERAL DISORDERS AND ADMINISTRATION SITE CONDITIONS,NA,APPLICATION SITE REDNESS,NA,NA,HLT_0617,NA,HLGT_0152,NA,GENERAL DISORDERS AND ADMINISTRATION SITE CONDITIONS,NA,2012-12-27,2012-12-27,2012-12-27T00:00:00Z,NA,H,NA,NA,NA,NA,NA,61,61,NA,NA,NA,NA,Y,Y,N,N,N,N,N,N,MODERATE,MODERATE,2,PROBABLE,PROBABLE,NA,E04,NOT RECOVERED/NOT RESOLVED,N,N,2013-02-18,2012-11-12T00:00:00Z,NA,NA
CDISCPILOT01,01-701-1133,1133,701,USA,AE,2012-10-28,2013-04-29,2012-10-28,2013-04-28,2013-04-29T10:13,NA,NA,NA,NA,NA,NA,NA,NA,NA,NA,NA,NA,2012-10-23,-5,81,YEARS,>64,F,WHITE,White,NOT HISPANIC OR LATINO,Y,Xanomeline High Dose,Xan_Hi,Xanomeline High Dose,Xan_Hi,Xanomeline High Dose,Xanomeline High Dose,2012-10-28,2012-10-28T00:00:00Z,H,2013-04-28,2013-04-28T23:59:59Z,H,COMPLETED,2013-04-29,NA,2012-10-28,2013-04-29,183,NA,NA,NA,NA,4,APPLICATION SITE PRURITUS,APPLICATION SITE PRURITUS,GENERAL DISORDERS AND ADMINISTRATION SITE CONDITIONS,NA,APPLICATION SITE ITCHING,NA,NA,HLT_0317,NA,HLGT_0338,NA,GENERAL DISORDERS AND ADMINISTRATION SITE CONDITIONS,NA,2012-12-27,2012-12-27,2012-12-27T00:00:00Z,NA,H,NA,NA,NA,NA,NA,61,61,NA,NA,NA,NA,Y,NA,N,N,N,N,N,N,MODERATE,MODERATE,2,PROBABLE,PROBABLE,NA,E05,NOT RECOVERED/NOT RESOLVED,N,N,2013-02-18,2012-11-12T00:00:00Z,NA,NA
CDISCPILOT01,01-701-1133,1133,701,USA,AE,2012-10-28,2013-04-29,2012-10-28,2013-04-28,2013-04-29T10:13,NA,NA,NA,NA,NA,NA,NA,NA,NA,NA,NA,NA,2012-10-23,-5,81,YEARS,>64,F,WHITE,White,NOT HISPANIC OR LATINO,Y,Xanomeline High Dose,Xan_Hi,Xanomeline High Dose,Xan_Hi,Xanomeline High Dose,Xanomeline High Dose,2012-10-28,2012-10-28T00:00:00Z,H,2013-04-28,2013-04-28T23:59:59Z,H,COMPLETED,2013-04-29,NA,2012-10-28,2013-04-29,183,NA,NA,NA,NA,1,APPLICATION SITE ERYTHEMA,APPLICATION SITE ERYTHEMA,GENERAL DISORDERS AND ADMINISTRATION SITE CONDITIONS,NA,APPLICATION SITE REDNESS,NA,NA,HLT_0617,NA,HLGT_0152,NA,GENERAL DISORDERS AND ADMINISTRATION SITE CONDITIONS,NA,2012-12-27,2012-12-27,2012-12-27T00:00:00Z,NA,H,NA,NA,NA,NA,NA,61,61,NA,NA,NA,NA,Y,NA,N,N,N,N,N,N,MILD,MILD,1,PROBABLE,PROBABLE,NA,E04,NOT RECOVERED/NOT RESOLVED,N,N,2013-01-22,2012-11-12T00:00:00Z,NA,NA
CDISCPILOT01,01-701-1133,1133,701,USA,AE,2012-10-28,2013-04-29,2012-10-28,2013-04-28,2013-04-29T10:13,NA,NA,NA,NA,NA,NA,NA,NA,NA,NA,NA,NA,2012-10-23,-5,81,YEARS,>64,F,WHITE,White,NOT HISPANIC OR LATINO,Y,Xanomeline High Dose,Xan_Hi,Xanomeline High Dose,Xan_Hi,Xanomeline High Dose,Xanomeline High Dose,2012-10-28,2012-10-28T00:00:00Z,H,2013-04-28,2013-04-28T23:59:59Z,H,COMPLETED,2013-04-29,NA,2012-10-28,2013-04-29,183,NA,NA,NA,NA,2,APPLICATION SITE PRURITUS,APPLICATION SITE PRURITUS,GENERAL DISORDERS AND ADMINISTRATION SITE CONDITIONS,NA,APPLICATION SITE ITCHING,NA,NA,HLT_0317,NA,HLGT_0338,NA,GENERAL DISORDERS AND ADMINISTRATION SITE CONDITIONS,NA,2012-12-27,2012-12-27,2012-12-27T00:00:00Z,NA,H,NA,NA,NA,NA,NA,61,61,NA,NA,NA,NA,Y,NA,N,N,N,N,N,N,MILD,MILD,1,PROBABLE,PROBABLE,NA,E05,NOT RECOVERED/NOT RESOLVED,N,N,2013-01-22,2012-11-12T00:00:00Z,NA,NA
CDISCPILOT01,01-701-1146,1146,701,USA,AE,2013-05-20,2013-06-30,2013-05-20,2013-06-26,2013-07-15,NA,NA,NA,NA,NA,NA,NA,NA,NA,NA,NA,NA,2013-05-07,-13,75,YEARS,>64,F,WHITE,White,NOT HISPANIC OR LATINO,Y,Xanomeline High Dose,Xan_Hi,Xanomeline High Dose,Xan_Hi,Xanomeline High Dose,Xanomeline High Dose,2013-05-20,2013-05-20T00:00:00Z,H,2013-06-26,2013-06-26T23:59:59Z,H,DISCONTINUED,2013-06-30,NA,2013-05-20,2013-06-30,38,NA,NA,NA,NA,7,APPLICATION SITE ERYTHEMA,APPLICATION SITE ERYTHEMA,GENERAL DISORDERS AND ADMINISTRATION SITE CONDITIONS,NA,APPLICATION SITE ERYTHEMA,NA,NA,HLT_0617,NA,HLGT_0152,NA,GENERAL DISORDERS AND ADMINISTRATION SITE CONDITIONS,NA,2013-06-10,2013-06-10,2013-06-10T00:00:00Z,NA,H,NA,NA,NA,NA,NA,22,22,NA,NA,NA,NA,Y,Y,N,N,N,N,N,N,MODERATE,MODERATE,2,PROBABLE,PROBABLE,NA,E12,NOT RECOVERED/NOT RESOLVED,N,N,2013-06-30,2013-06-03T00:00:00Z,NA,NA
CDISCPILOT01,01-701-1146,1146,701,USA,AE,2013-05-20,2013-06-30,2013-05-20,2013-06-26,2013-07-15,NA,NA,NA,NA,NA,NA,NA,NA,NA,NA,NA,NA,2013-05-07,-13,75,YEARS,>64,F,WHITE,White,NOT HISPANIC OR LATINO,Y,Xanomeline High Dose,Xan_Hi,Xanomeline High Dose,Xan_Hi,Xanomeline High Dose,Xanomeline High Dose,2013-05-20,2013-05-20T00:00:00Z,H,2013-06-26,2013-06-26T23:59:59Z,H,DISCONTINUED,2013-06-30,NA,2013-05-20,2013-06-30,38,NA,NA,NA,NA,8,APPLICATION SITE PRURITUS,APPLICATION SITE PRURITUS,GENERAL DISORDERS AND ADMINISTRATION SITE CONDITIONS,NA,APPLICATION SITE ITCHING,NA,NA,HLT_0317,NA,HLGT_0338,NA,GENERAL DISORDERS AND ADMINISTRATION SITE CONDITIONS,NA,2013-06-10,2013-06-10,2013-06-10T00:00:00Z,NA,H,NA,NA,NA,NA,NA,22,22,NA,NA,NA,NA,Y,NA,N,N,N,N,N,N,MODERATE,MODERATE,2,PROBABLE,PROBABLE,NA,E13,NOT RECOVERED/NOT RESOLVED,N,N,2013-06-30,2013-06-03T00:00:00Z,NA,NA
CDISCPILOT01,01-701-1146,1146,701,USA,AE,2013-05-20,2013-06-30,2013-05-20,2013-06-26,2013-07-15,NA,NA,NA,NA,NA,NA,NA,NA,NA,NA,NA,NA,2013-05-07,-13,75,YEARS,>64,F,WHITE,White,NOT HISPANIC OR LATINO,Y,Xanomeline High Dose,Xan_Hi,Xanomeline High Dose,Xan_Hi,Xanomeline High Dose,Xanomeline High Dose,2013-05-20,2013-05-20T00:00:00Z,H,2013-06-26,2013-06-26T23:59:59Z,H,DISCONTINUED,2013-06-30,NA,2013-05-20,2013-06-30,38,NA,NA,NA,NA,9,APPLICATION SITE PAIN,APPLICATION SITE PAIN,GENERAL DISORDERS AND ADMINISTRATION SITE CONDITIONS,NA,APPLICATION SITE PAIN,NA,NA,HLT_0342,NA,HLGT_0085,NA,GENERAL DISORDERS AND ADMINISTRATION SITE CONDITIONS,NA,2013-06-22,2013-06-22,2013-06-22T00:00:00Z,NA,H,NA,NA,NA,NA,NA,34,34,NA,NA,NA,NA,Y,NA,N,N,N,N,N,N,MODERATE,MODERATE,2,PROBABLE,PROBABLE,NA,E14,NOT RECOVERED/NOT RESOLVED,N,N,2013-06-30,2013-06-03T00:00:00Z,NA,NA
CDISCPILOT01,01-701-1146,1146,701,USA,AE,2013-05-20,2013-06-30,2013-05-20,2013-06-26,2013-07-15,NA,NA,NA,NA,NA,NA,NA,NA,NA,NA,NA,NA,2013-05-07,-13,75,YEARS,>64,F,WHITE,White,NOT HISPANIC OR LATINO,Y,Xanomeline High Dose,Xan_Hi,Xanomeline High Dose,Xan_Hi,Xanomeline High Dose,Xanomeline High Dose,2013-05-20,2013-05-20T00:00:00Z,H,2013-06-26,2013-06-26T23:59:59Z,H,DISCONTINUED,2013-06-30,NA,2013-05-20,2013-06-30,38,NA,NA,NA,NA,10,APPLICATION SITE VESICLES,APPLICATION SITE VESICLES,GENERAL DISORDERS AND ADMINISTRATION SITE CONDITIONS,NA,APPLICATION SITE VESICLES,NA,NA,HLT_0180,NA,HLGT_0576,NA,GENERAL DISORDERS AND ADMINISTRATION SITE CONDITIONS,NA,2013-06-26,2013-06-26,2013-06-26T00:00:00Z,NA,H,NA,NA,NA,NA,NA,38,38,NA,NA,NA,NA,Y,NA,N,N,N,N,N,N,MODERATE,MODERATE,2,PROBABLE,PROBABLE,NA,E15,NOT RECOVERED/NOT RESOLVED,N,N,2013-06-30,2013-06-03T00:00:00Z,NA,NA
CDISCPILOT01,01-701-1146,1146,701,USA,AE,2013-05-20,2013-06-30,2013-05-20,2013-06-26,2013-07-15,NA,NA,NA,NA,NA,NA,NA,NA,NA,NA,NA,NA,2013-05-07,-13,75,YEARS,>64,F,WHITE,White,NOT HISPANIC OR LATINO,Y,Xanomeline High Dose,Xan_Hi,Xanomeline High Dose,Xan_Hi,Xanomeline High Dose,Xanomeline High Dose,2013-05-20,2013-05-20T00:00:00Z,H,2013-06-26,2013-06-26T23:59:59Z,H,DISCONTINUED,2013-06-30,NA,2013-05-20,2013-06-30,38,NA,NA,NA,NA,11,APPLICATION SITE IRRITATION,APPLICATION SITE IRRITATION,GENERAL DISORDERS AND ADMINISTRATION SITE CONDITIONS,NA,APPLICATION SITE BURNING,NA,NA,HLT_0061,NA,HLGT_0346,NA,GENERAL DISORDERS AND ADMINISTRATION SITE CONDITIONS,NA,2013-06-26,2013-06-26,2013-06-26T00:00:00Z,NA,H,NA,NA,NA,NA,NA,38,38,NA,NA,NA,NA,Y,NA,N,N,N,N,N,N,MODERATE,MODERATE,2,PROBABLE,PROBABLE,NA,E16,NOT RECOVERED/NOT RESOLVED,N,N,2013-06-30,2013-06-03T00:00:00Z,NA,NA
CDISCPILOT01,01-701-1146,1146,701,USA,AE,2013-05-20,2013-06-30,2013-05-20,2013-06-26,2013-07-15,NA,NA,NA,NA,NA,NA,NA,NA,NA,NA,NA,NA,2013-05-07,-13,75,YEARS,>64,F,WHITE,White,NOT HISPANIC OR LATINO,Y,Xanomeline High Dose,Xan_Hi,Xanomeline High Dose,Xan_Hi,Xanomeline High Dose,Xanomeline High Dose,2013-05-20,2013-05-20T00:00:00Z,H,2013-06-26,2013-06-26T23:59:59Z,H,DISCONTINUED,2013-06-30,NA,2013-05-20,2013-06-30,38,NA,NA,NA,NA,3,APPLICATION SITE IRRITATION,APPLICATION SITE IRRITATION,GENERAL DISORDERS AND ADMINISTRATION SITE CONDITIONS,NA,APPLICATION SITE IRRITATION,NA,NA,HLT_0061,NA,HLGT_0346,NA,GENERAL DISORDERS AND ADMINISTRATION SITE CONDITIONS,NA,2013-06-01,2013-06-01,2013-06-01T00:00:00Z,NA,H,2013-06-02,2013-06-02,2013-06-02T23:59:59Z,NA,H,13,13,14,14,2,days,Y,NA,N,N,N,N,N,N,MILD,MILD,1,PROBABLE,PROBABLE,NA,E10,RECOVERED/RESOLVED,N,N,2013-06-03,2013-06-01T00:00:00Z,54,mg
CDISCPILOT01,01-701-1146,1146,701,USA,AE,2013-05-20,2013-06-30,2013-05-20,2013-06-26,2013-07-15,NA,NA,NA,NA,NA,NA,NA,NA,NA,NA,NA,NA,2013-05-07,-13,75,YEARS,>64,F,WHITE,White,NOT HISPANIC OR LATINO,Y,Xanomeline High Dose,Xan_Hi,Xanomeline High Dose,Xan_Hi,Xanomeline High Dose,Xanomeline High Dose,2013-05-20,2013-05-20T00:00:00Z,H,2013-06-26,2013-06-26T23:59:59Z,H,DISCONTINUED,2013-06-30,NA,2013-05-20,2013-06-30,38,NA,NA,NA,NA,4,FATIGUE,FATIGUE,GENERAL DISORDERS AND ADMINISTRATION SITE CONDITIONS,NA,FATIGUE,NA,NA,HLT_0043,NA,HLGT_0181,NA,GENERAL DISORDERS AND ADMINISTRATION SITE CONDITIONS,NA,2013-06-03,2013-06-03,2013-06-03T00:00:00Z,NA,H,NA,NA,NA,NA,NA,15,15,NA,NA,NA,NA,Y,NA,N,N,N,N,N,N,MILD,MILD,1,POSSIBLE,POSSIBLE,NA,E11,NOT RECOVERED/NOT RESOLVED,N,N,2013-06-03,2013-06-03T00:00:00Z,54,mg
CDISCPILOT01,01-701-1146,1146,701,USA,AE,2013-05-20,2013-06-30,2013-05-20,2013-06-26,2013-07-15,NA,NA,NA,NA,NA,NA,NA,NA,NA,NA,NA,NA,2013-05-07,-13,75,YEARS,>64,F,WHITE,White,NOT HISPANIC OR LATINO,Y,Xanomeline High Dose,Xan_Hi,Xanomeline High Dose,Xan_Hi,Xanomeline High Dose,Xanomeline High Dose,2013-05-20,2013-05-20T00:00:00Z,H,2013-06-26,2013-06-26T23:59:59Z,H,DISCONTINUED,2013-06-30,NA,2013-05-20,2013-06-30,38,NA,NA,NA,NA,5,APPLICATION SITE ERYTHEMA,APPLICATION SITE ERYTHEMA,GENERAL DISORDERS AND ADMINISTRATION SITE CONDITIONS,NA,APPLICATION SITE ERYTHEMA,NA,NA,HLT_0617,NA,HLGT_0152,NA,GENERAL DISORDERS AND ADMINISTRATION SITE CONDITIONS,NA,2013-06-10,2013-06-10,2013-06-10T00:00:00Z,NA,H,NA,NA,NA,NA,NA,22,22,NA,NA,NA,NA,Y,NA,N,N,N,N,N,N,MILD,MILD,1,PROBABLE,PROBABLE,NA,E12,NOT RECOVERED/NOT RESOLVED,N,N,2013-06-16,2013-06-03T00:00:00Z,NA,NA
CDISCPILOT01,01-701-1146,1146,701,USA,AE,2013-05-20,2013-06-30,2013-05-20,2013-06-26,2013-07-15,NA,NA,NA,NA,NA,NA,NA,NA,NA,NA,NA,NA,2013-05-07,-13,75,YEARS,>64,F,WHITE,White,NOT HISPANIC OR LATINO,Y,Xanomeline High Dose,Xan_Hi,Xanomeline High Dose,Xan_Hi,Xanomeline High Dose,Xanomeline High Dose,2013-05-20,2013-05-20T00:00:00Z,H,2013-06-26,2013-06-26T23:59:59Z,H,DISCONTINUED,2013-06-30,NA,2013-05-20,2013-06-30,38,NA,NA,NA,NA,6,APPLICATION SITE PRURITUS,APPLICATION SITE PRURITUS,GENERAL DISORDERS AND ADMINISTRATION SITE CONDITIONS,NA,APPLICATION SITE ITCHING,NA,NA,HLT_0317,NA,HLGT_0338,NA,GENERAL DISORDERS AND ADMINISTRATION SITE CONDITIONS,NA,2013-06-10,2013-06-10,2013-06-10T00:00:00Z,NA,H,NA,NA,NA,NA,NA,22,22,NA,NA,NA,NA,Y,NA,N,N,N,N,N,N,MILD,MILD,1,PROBABLE,PROBABLE,NA,E13,NOT RECOVERED/NOT RESOLVED,N,N,2013-06-16,2013-06-03T00:00:00Z,NA,NA
CDISCPILOT01,01-701-1148,1148,701,USA,AE,2013-08-23,2014-02-20,2013-08-23,2014-02-20,2014-02-20T15:07,NA,NA,NA,NA,NA,NA,NA,NA,NA,NA,NA,NA,2013-08-14,-9,57,YEARS,18-64,M,WHITE,White,NOT HISPANIC OR LATINO,Y,Xanomeline High Dose,Xan_Hi,Xanomeline High Dose,Xan_Hi,Xanomeline High Dose,Xanomeline High Dose,2013-08-23,2013-08-23T00:00:00Z,H,2014-02-20,2014-02-20T23:59:59Z,H,COMPLETED,2014-02-20,NA,2013-08-23,2014-02-20,182,NA,NA,NA,NA,3,LOWER RESPIRATORY TRACT INFECTION,LOWER RESPIRATORY TRACT INFECTION,INFECTIONS AND INFESTATIONS,NA,CHEST COLD,NA,NA,HLT_0052,NA,HLGT_0217,NA,INFECTIONS AND INFESTATIONS,NA,2013-10-12,2013-10-12,2013-10-12T00:00:00Z,NA,H,2013-11-10,2013-11-10,2013-11-10T23:59:59Z,NA,H,51,51,80,80,30,days,Y,Y,N,N,N,N,N,N,MODERATE,MODERATE,2,NONE,NONE,NA,E23,NOT RECOVERED/NOT RESOLVED,N,N,2013-10-18,2013-09-05T00:00:00Z,NA,NA
CDISCPILOT01,01-701-1148,1148,701,USA,AE,2013-08-23,2014-02-20,2013-08-23,2014-02-20,2014-02-20T15:07,NA,NA,NA,NA,NA,NA,NA,NA,NA,NA,NA,NA,2013-08-14,-9,57,YEARS,18-64,M,WHITE,White,NOT HISPANIC OR LATINO,Y,Xanomeline High Dose,Xan_Hi,Xanomeline High Dose,Xan_Hi,Xanomeline High Dose,Xanomeline High Dose,2013-08-23,2013-08-23T00:00:00Z,H,2014-02-20,2014-02-20T23:59:59Z,H,COMPLETED,2014-02-20,NA,2013-08-23,2014-02-20,182,NA,NA,NA,NA,4,LOWER RESPIRATORY TRACT INFECTION,LOWER RESPIRATORY TRACT INFECTION,INFECTIONS AND INFESTATIONS,NA,CHEST COLD,NA,NA,HLT_0052,NA,HLGT_0217,NA,INFECTIONS AND INFESTATIONS,NA,2013-10-12,2013-10-12,2013-10-12T00:00:00Z,NA,H,2013-11-10,2013-11-10,2013-11-10T23:59:59Z,NA,H,51,51,80,80,30,days,Y,NA,N,N,N,N,N,N,MODERATE,MODERATE,2,NONE,NONE,NA,E23,RECOVERED/RESOLVED,N,N,2013-11-17,2013-09-05T00:00:00Z,NA,NA
CDISCPILOT01,01-701-1148,1148,701,USA,AE,2013-08-23,2014-02-20,2013-08-23,2014-02-20,2014-02-20T15:07,NA,NA,NA,NA,NA,NA,NA,NA,NA,NA,NA,NA,2013-08-14,-9,57,YEARS,18-64,M,WHITE,White,NOT HISPANIC OR LATINO,Y,Xanomeline High Dose,Xan_Hi,Xanomeline High Dose,Xan_Hi,Xanomeline High Dose,Xanomeline High Dose,2013-08-23,2013-08-23T00:00:00Z,H,2014-02-20,2014-02-20T23:59:59Z,H,COMPLETED,2014-02-20,NA,2013-08-23,2014-02-20,182,NA,NA,NA,NA,5,FLANK PAIN,FLANK PAIN,MUSCULOSKELETAL AND CONNECTIVE TISSUE DISORDERS,NA,FLANK PAIN,NA,NA,HLT_0484,NA,HLGT_0543,NA,MUSCULOSKELETAL AND CONNECTIVE TISSUE DISORDERS,NA,2013-12-15,2013-12-15,2013-12-15T00:00:00Z,NA,H,2013-12-17,2013-12-17,2013-12-17T23:59:59Z,NA,H,115,115,117,117,3,days,Y,NA,N,N,N,N,N,N,MODERATE,MODERATE,2,NONE,NONE,NA,E24,RECOVERED/RESOLVED,N,N,2014-01-10,2013-09-05T00:00:00Z,NA,NA
CDISCPILOT01,01-701-1148,1148,701,USA,AE,2013-08-23,2014-02-20,2013-08-23,2014-02-20,2014-02-20T15:07,NA,NA,NA,NA,NA,NA,NA,NA,NA,NA,NA,NA,2013-08-14,-9,57,YEARS,18-64,M,WHITE,White,NOT HISPANIC OR LATINO,Y,Xanomeline High Dose,Xan_Hi,Xanomeline High Dose,Xan_Hi,Xanomeline High Dose,Xanomeline High Dose,2013-08-23,2013-08-23T00:00:00Z,H,2014-02-20,2014-02-20T23:59:59Z,H,COMPLETED,2014-02-20,NA,2013-08-23,2014-02-20,182,NA,NA,NA,NA,6,CALCULUS URETHRAL,CALCULUS URETHRAL,RENAL AND URINARY DISORDERS,NA,URETHRAL CALCULUS,NA,NA,HLT_0550,NA,HLGT_0414,NA,RENAL AND URINARY DISORDERS,NA,2013-12-17,2013-12-17,2013-12-17T00:00:00Z,NA,H,2013-12-17,2013-12-17,2013-12-17T23:59:59Z,NA,H,117,117,117,117,1,days,Y,NA,N,N,N,N,N,N,MODERATE,MODERATE,2,NONE,NONE,NA,E25,RECOVERED/RESOLVED,N,N,2014-01-10,2013-09-05T00:00:00Z,NA,NA
CDISCPILOT01,01-701-1148,1148,701,USA,AE,2013-08-23,2014-02-20,2013-08-23,2014-02-20,2014-02-20T15:07,NA,NA,NA,NA,NA,NA,NA,NA,NA,NA,NA,NA,2013-08-14,-9,57,YEARS,18-64,M,WHITE,White,NOT HISPANIC OR LATINO,Y,Xanomeline High Dose,Xan_Hi,Xanomeline High Dose,Xan_Hi,Xanomeline High Dose,Xanomeline High Dose,2013-08-23,2013-08-23T00:00:00Z,H,2014-02-20,2014-02-20T23:59:59Z,H,COMPLETED,2014-02-20,NA,2013-08-23,2014-02-20,182,NA,NA,NA,NA,1,APPLICATION SITE ERYTHEMA,APPLICATION SITE ERYTHEMA,GENERAL DISORDERS AND ADMINISTRATION SITE CONDITIONS,NA,APPLICATION SITE REDNESS,NA,NA,HLT_0617,NA,HLGT_0152,NA,GENERAL DISORDERS AND ADMINISTRATION SITE CONDITIONS,NA,2013-08-25,2013-08-25,2013-08-25T00:00:00Z,NA,H,NA,NA,NA,NA,NA,3,3,NA,NA,NA,NA,Y,NA,N,N,N,N,N,N,MILD,MILD,1,PROBABLE,PROBABLE,NA,E20,NOT RECOVERED/NOT RESOLVED,N,N,2013-09-05,2013-08-25T00:00:00Z,54,mg
CDISCPILOT01,01-701-1148,1148,701,USA,AE,2013-08-23,2014-02-20,2013-08-23,2014-02-20,2014-02-20T15:07,NA,NA,NA,NA,NA,NA,NA,NA,NA,NA,NA,NA,2013-08-14,-9,57,YEARS,18-64,M,WHITE,White,NOT HISPANIC OR LATINO,Y,Xanomeline High Dose,Xan_Hi,Xanomeline High Dose,Xan_Hi,Xanomeline High Dose,Xanomeline High Dose,2013-08-23,2013-08-23T00:00:00Z,H,2014-02-20,2014-02-20T23:59:59Z,H,COMPLETED,2014-02-20,NA,2013-08-23,2014-02-20,182,NA,NA,NA,NA,2,APPLICATION SITE PRURITUS,APPLICATION SITE PRURITUS,GENERAL DISORDERS AND ADMINISTRATION SITE CONDITIONS,NA,APPLICATION SITE ITCHING,NA,NA,HLT_0317,NA,HLGT_0338,NA,GENERAL DISORDERS AND ADMINISTRATION SITE CONDITIONS,NA,2013-08-25,2013-08-25,2013-08-25T00:00:00Z,NA,H,NA,NA,NA,NA,NA,3,3,NA,NA,NA,NA,Y,NA,N,N,N,N,N,N,MILD,MILD,1,PROBABLE,PROBABLE,NA,E21,NOT RECOVERED/NOT RESOLVED,N,N,2013-09-05,2013-08-25T00:00:00Z,54,mg
CDISCPILOT01,01-701-1148,1148,701,USA,AE,2013-08-23,2014-02-20,2013-08-23,2014-02-20,2014-02-20T15:07,NA,NA,NA,NA,NA,NA,NA,NA,NA,NA,NA,NA,2013-08-14,-9,57,YEARS,18-64,M,WHITE,White,NOT HISPANIC OR LATINO,Y,Xanomeline High Dose,Xan_Hi,Xanomeline High Dose,Xan_Hi,Xanomeline High Dose,Xanomeline High Dose,2013-08-23,2013-08-23T00:00:00Z,H,2014-02-20,2014-02-20T23:59:59Z,H,COMPLETED,2014-02-20,NA,2013-08-23,2014-02-20,182,NA,NA,NA,NA,7,EPISTAXIS,EPISTAXIS,"RESPIRATORY, THORACIC AND MEDIASTINAL DISORDERS",NA,NOSE BLEED,NA,NA,HLT_0386,NA,HLGT_0577,NA,"RESPIRATORY, THORACIC AND MEDIASTINAL DISORDERS",NA,2014-01-03,2014-01-03,2014-01-03T00:00:00Z,NA,H,2014-01-03,2014-01-03,2014-01-03T23:59:59Z,NA,H,134,134,134,134,1,days,Y,NA,N,N,N,N,N,N,MILD,MILD,1,NONE,NONE,NA,E28,RECOVERED/RESOLVED,N,N,2014-01-10,2013-09-05T00:00:00Z,NA,NA
CDISCPILOT01,01-701-1148,1148,701,USA,AE,2013-08-23,2014-02-20,2013-08-23,2014-02-20,2014-02-20T15:07,NA,NA,NA,NA,NA,NA,NA,NA,NA,NA,NA,NA,2013-08-14,-9,57,YEARS,18-64,M,WHITE,White,NOT HISPANIC OR LATINO,Y,Xanomeline High Dose,Xan_Hi,Xanomeline High Dose,Xan_Hi,Xanomeline High Dose,Xanomeline High Dose,2013-08-23,2013-08-23T00:00:00Z,H,2014-02-20,2014-02-20T23:59:59Z,H,COMPLETED,2014-02-20,NA,2013-08-23,2014-02-20,182,NA,NA,NA,NA,10,ACTINIC KERATOSIS,ACTINIC KERATOSIS,SKIN AND SUBCUTANEOUS TISSUE DISORDERS,NA,ACTINIC KERATOSIS,NA,NA,HLT_0609,NA,HLGT_0490,NA,SKIN AND SUBCUTANEOUS TISSUE DISORDERS,NA,2014-02-12,2014-02-12,2014-02-12T00:00:00Z,NA,H,NA,NA,NA,NA,NA,174,174,NA,NA,NA,NA,Y,NA,N,N,N,N,N,N,MILD,MILD,1,NONE,NONE,NA,E27,NOT RECOVERED/NOT RESOLVED,N,N,2014-02-20,2014-02-12T00:00:00Z,54,mg
CDISCPILOT01,01-701-1153,1153,701,USA,AE,2013-09-23,2014-04-01,2013-09-23,2014-03-16,2014-04-01T14:25,NA,NA,NA,NA,NA,NA,NA,NA,NA,NA,NA,NA,2013-09-06,-17,79,YEARS,>64,F,WHITE,White,NOT HISPANIC OR LATINO,Y,Placebo,Pbo,Placebo,Pbo,Placebo,Placebo,2013-09-23,2013-09-23T00:00:00Z,H,2014-03-16,2014-03-16T23:59:59Z,H,COMPLETED,2014-04-01,NA,2013-09-23,2014-04-01,175,NA,NA,NA,NA,1,INCREASED APPETITE,INCREASED APPETITE,METABOLISM AND NUTRITION DISORDERS,NA,INCREASED APPETITE,NA,NA,HLT_0566,NA,HLGT_0769,NA,METABOLISM AND NUTRITION DISORDERS,NA,2013-10-13,2013-10-13,2013-10-13T00:00:00Z,NA,H,2013-11-06,2013-11-06,2013-11-06T23:59:59Z,NA,H,21,21,45,45,25,days,Y,Y,N,N,N,N,N,N,MILD,MILD,1,POSSIBLE,POSSIBLE,NA,E06,NOT RECOVERED/NOT RESOLVED,N,N,2013-10-19,2013-10-13T00:00:00Z,0,mg
CDISCPILOT01,01-701-1153,1153,701,USA,AE,2013-09-23,2014-04-01,2013-09-23,2014-03-16,2014-04-01T14:25,NA,NA,NA,NA,NA,NA,NA,NA,NA,NA,NA,NA,2013-09-06,-17,79,YEARS,>64,F,WHITE,White,NOT HISPANIC OR LATINO,Y,Placebo,Pbo,Placebo,Pbo,Placebo,Placebo,2013-09-23,2013-09-23T00:00:00Z,H,2014-03-16,2014-03-16T23:59:59Z,H,COMPLETED,2014-04-01,NA,2013-09-23,2014-04-01,175,NA,NA,NA,NA,2,INCREASED APPETITE,INCREASED APPETITE,METABOLISM AND NUTRITION DISORDERS,NA,INCREASED APPETITE,NA,NA,HLT_0566,NA,HLGT_0769,NA,METABOLISM AND NUTRITION DISORDERS,NA,2013-10-13,2013-10-13,2013-10-13T00:00:00Z,NA,H,2013-11-06,2013-11-06,2013-11-06T23:59:59Z,NA,H,21,21,45,45,25,days,Y,NA,N,N,N,N,N,N,MILD,MILD,1,POSSIBLE,POSSIBLE,NA,E06,RECOVERED/RESOLVED,N,N,2013-11-18,2013-10-13T00:00:00Z,0,mg
CDISCPILOT01,01-701-1180,1180,701,USA,AE,2013-02-12,2013-03-23,2013-02-12,2013-03-18,2013-04-07,NA,NA,NA,NA,NA,NA,NA,NA,NA,NA,NA,NA,2013-01-28,-15,56,YEARS,18-64,M,WHITE,White,NOT HISPANIC OR LATINO,Y,Xanomeline High Dose,Xan_Hi,Xanomeline High Dose,Xan_Hi,Xanomeline High Dose,Xanomeline High Dose,2013-02-12,2013-02-12T00:00:00Z,H,2013-03-18,2013-03-18T23:59:59Z,H,DISCONTINUED,2013-03-23,NA,2013-02-12,2013-03-23,35,NA,NA,NA,NA,7,APPLICATION SITE VESICLES,APPLICATION SITE VESICLES,GENERAL DISORDERS AND ADMINISTRATION SITE CONDITIONS,NA,APPLICATION SITE BLISTER,NA,NA,HLT_0180,NA,HLGT_0576,NA,GENERAL DISORDERS AND ADMINISTRATION SITE CONDITIONS,NA,2013-03-19,2013-03-19,2013-03-19T00:00:00Z,NA,H,NA,NA,NA,NA,NA,36,36,NA,NA,NA,NA,Y,Y,N,N,N,N,N,N,MODERATE,MODERATE,2,POSSIBLE,POSSIBLE,NA,E05,NOT RECOVERED/NOT RESOLVED,N,N,2013-03-23,2013-02-25T00:00:00Z,NA,NA
CDISCPILOT01,01-701-1180,1180,701,USA,AE,2013-02-12,2013-03-23,2013-02-12,2013-03-18,2013-04-07,NA,NA,NA,NA,NA,NA,NA,NA,NA,NA,NA,NA,2013-01-28,-15,56,YEARS,18-64,M,WHITE,White,NOT HISPANIC OR LATINO,Y,Xanomeline High Dose,Xan_Hi,Xanomeline High Dose,Xan_Hi,Xanomeline High Dose,Xanomeline High Dose,2013-02-12,2013-02-12T00:00:00Z,H,2013-03-18,2013-03-18T23:59:59Z,H,DISCONTINUED,2013-03-23,NA,2013-02-12,2013-03-23,35,NA,NA,NA,NA,8,APPLICATION SITE PRURITUS,APPLICATION SITE PRURITUS,GENERAL DISORDERS AND ADMINISTRATION SITE CONDITIONS,NA,APPLICATION SITE ITCHING,NA,NA,HLT_0317,NA,HLGT_0338,NA,GENERAL DISORDERS AND ADMINISTRATION SITE CONDITIONS,NA,2013-03-19,2013-03-19,2013-03-19T00:00:00Z,NA,H,NA,NA,NA,NA,NA,36,36,NA,NA,NA,NA,Y,NA,N,N,N,N,N,N,MODERATE,MODERATE,2,POSSIBLE,POSSIBLE,NA,E06,NOT RECOVERED/NOT RESOLVED,N,N,2013-03-23,2013-02-25T00:00:00Z,NA,NA
CDISCPILOT01,01-701-1180,1180,701,USA,AE,2013-02-12,2013-03-23,2013-02-12,2013-03-18,2013-04-07,NA,NA,NA,NA,NA,NA,NA,NA,NA,NA,NA,NA,2013-01-28,-15,56,YEARS,18-64,M,WHITE,White,NOT HISPANIC OR LATINO,Y,Xanomeline High Dose,Xan_Hi,Xanomeline High Dose,Xan_Hi,Xanomeline High Dose,Xanomeline High Dose,2013-02-12,2013-02-12T00:00:00Z,H,2013-03-18,2013-03-18T23:59:59Z,H,DISCONTINUED,2013-03-23,NA,2013-02-12,2013-03-23,35,NA,NA,NA,NA,9,APPLICATION SITE ERYTHEMA,APPLICATION SITE ERYTHEMA,GENERAL DISORDERS AND ADMINISTRATION SITE CONDITIONS,NA,APPLICATION SITE ERYTHEMA,NA,NA,HLT_0617,NA,HLGT_0152,NA,GENERAL DISORDERS AND ADMINISTRATION SITE CONDITIONS,NA,2013-03-19,2013-03-19,2013-03-19T00:00:00Z,NA,H,NA,NA,NA,NA,NA,36,36,NA,NA,NA,NA,Y,NA,N,N,N,N,N,N,MODERATE,MODERATE,2,POSSIBLE,POSSIBLE,NA,E07,NOT RECOVERED/NOT RESOLVED,N,N,2013-03-23,2013-02-25T00:00:00Z,NA,NA
CDISCPILOT01,01-701-1180,1180,701,USA,AE,2013-02-12,2013-03-23,2013-02-12,2013-03-18,2013-04-07,NA,NA,NA,NA,NA,NA,NA,NA,NA,NA,NA,NA,2013-01-28,-15,56,YEARS,18-64,M,WHITE,White,NOT HISPANIC OR LATINO,Y,Xanomeline High Dose,Xan_Hi,Xanomeline High Dose,Xan_Hi,Xanomeline High Dose,Xanomeline High Dose,2013-02-12,2013-02-12T00:00:00Z,H,2013-03-18,2013-03-18T23:59:59Z,H,DISCONTINUED,2013-03-23,NA,2013-02-12,2013-03-23,35,NA,NA,NA,NA,1,VOMITING,VOMITING,GASTROINTESTINAL DISORDERS,NA,VOMITING,NA,NA,HLT_0016,NA,HLGT_0350,NA,GASTROINTESTINAL DISORDERS,NA,2013-02-12,2013-02-12,2013-02-12T00:00:00Z,NA,H,2013-02-12,2013-02-12,2013-02-12T23:59:59Z,NA,H,1,1,1,1,1,days,Y,NA,N,N,N,N,N,N,MILD,MILD,1,NONE,NONE,NA,E01,NOT RECOVERED/NOT RESOLVED,N,N,2013-02-12,2013-02-12T00:00:00Z,54,mg
CDISCPILOT01,01-701-1180,1180,701,USA,AE,2013-02-12,2013-03-23,2013-02-12,2013-03-18,2013-04-07,NA,NA,NA,NA,NA,NA,NA,NA,NA,NA,NA,NA,2013-01-28,-15,56,YEARS,18-64,M,WHITE,White,NOT HISPANIC OR LATINO,Y,Xanomeline High Dose,Xan_Hi,Xanomeline High Dose,Xan_Hi,Xanomeline High Dose,Xanomeline High Dose,2013-02-12,2013-02-12T00:00:00Z,H,2013-03-18,2013-03-18T23:59:59Z,H,DISCONTINUED,2013-03-23,NA,2013-02-12,2013-03-23,35,NA,NA,NA,NA,2,VOMITING,VOMITING,GASTROINTESTINAL DISORDERS,NA,VOMITING,NA,NA,HLT_0016,NA,HLGT_0350,NA,GASTROINTESTINAL DISORDERS,NA,2013-02-12,2013-02-12,2013-02-12T00:00:00Z,NA,H,2013-02-12,2013-02-12,2013-02-12T23:59:59Z,NA,H,1,1,1,1,1,days,Y,NA,N,N,N,N,N,N,MILD,MILD,1,NONE,NONE,NA,E01,RECOVERED/RESOLVED,N,N,2013-02-25,2013-02-12T00:00:00Z,54,mg
CDISCPILOT01,01-701-1180,1180,701,USA,AE,2013-02-12,2013-03-23,2013-02-12,2013-03-18,2013-04-07,NA,NA,NA,NA,NA,NA,NA,NA,NA,NA,NA,NA,2013-01-28,-15,56,YEARS,18-64,M,WHITE,White,NOT HISPANIC OR LATINO,Y,Xanomeline High Dose,Xan_Hi,Xanomeline High Dose,Xan_Hi,Xanomeline High Dose,Xanomeline High Dose,2013-02-12,2013-02-12T00:00:00Z,H,2013-03-18,2013-03-18T23:59:59Z,H,DISCONTINUED,2013-03-23,NA,2013-02-12,2013-03-23,35,NA,NA,NA,NA,3,MICTURITION URGENCY,MICTURITION URGENCY,RENAL AND URINARY DISORDERS,NA,URINARY URGENCY,NA,NA,HLT_0294,NA,HLGT_0483,NA,RENAL AND URINARY DISORDERS,NA,2013-02-15,2013-02-15,2013-02-15T00:00:00Z,NA,H,2013-03-19,2013-03-19,2013-03-19T23:59:59Z,NA,H,4,4,36,36,33,days,Y,NA,N,N,N,N,N,N,MILD,MILD,1,POSSIBLE,POSSIBLE,NA,E02,NOT RECOVERED/NOT RESOLVED,N,N,2013-02-25,2013-02-15T00:00:00Z,54,mg
CDISCPILOT01,01-701-1180,1180,701,USA,AE,2013-02-12,2013-03-23,2013-02-12,2013-03-18,2013-04-07,NA,NA,NA,NA,NA,NA,NA,NA,NA,NA,NA,NA,2013-01-28,-15,56,YEARS,18-64,M,WHITE,White,NOT HISPANIC OR LATINO,Y,Xanomeline High Dose,Xan_Hi,Xanomeline High Dose,Xan_Hi,Xanomeline High Dose,Xanomeline High Dose,2013-02-12,2013-02-12T00:00:00Z,H,2013-03-18,2013-03-18T23:59:59Z,H,DISCONTINUED,2013-03-23,NA,2013-02-12,2013-03-23,35,NA,NA,NA,NA,6,MICTURITION URGENCY,MICTURITION URGENCY,RENAL AND URINARY DISORDERS,NA,URINARY URGENCY,NA,NA,HLT_0294,NA,HLGT_0483,NA,RENAL AND URINARY DISORDERS,NA,2013-02-15,2013-02-15,2013-02-15T00:00:00Z,NA,H,2013-03-19,2013-03-19,2013-03-19T23:59:59Z,NA,H,4,4,36,36,33,days,Y,NA,N,N,N,N,N,N,MILD,MILD,1,POSSIBLE,POSSIBLE,NA,E02,RECOVERED/RESOLVED,N,N,2013-03-23,2013-02-15T00:00:00Z,54,mg
CDISCPILOT01,01-701-1180,1180,701,USA,AE,2013-02-12,2013-03-23,2013-02-12,2013-03-18,2013-04-07,NA,NA,NA,NA,NA,NA,NA,NA,NA,NA,NA,NA,2013-01-28,-15,56,YEARS,18-64,M,WHITE,White,NOT HISPANIC OR LATINO,Y,Xanomeline High Dose,Xan_Hi,Xanomeline High Dose,Xan_Hi,Xanomeline High Dose,Xanomeline High Dose,2013-02-12,2013-02-12T00:00:00Z,H,2013-03-18,2013-03-18T23:59:59Z,H,DISCONTINUED,2013-03-23,NA,2013-02-12,2013-03-23,35,NA,NA,NA,NA,5,NASOPHARYNGITIS,NASOPHARYNGITIS,INFECTIONS AND INFESTATIONS,NA,COLD,NA,NA,HLT_0036,NA,HLGT_0709,NA,INFECTIONS AND INFESTATIONS,NA,2013-03-06,2013-03-06,2013-03-06T00:00:00Z,NA,H,2013-03-07,2013-03-07,2013-03-07T23:59:59Z,NA,H,23,23,24,24,2,days,Y,NA,N,N,N,N,N,N,MILD,MILD,1,NONE,NONE,NA,E03,RECOVERED/RESOLVED,N,N,2013-03-11,2013-02-25T00:00:00Z,NA,NA
CDISCPILOT01,01-701-1181,1181,701,USA,AE,2013-12-05,2013-12-12,2013-12-05,2013-12-09,2014-05-23,NA,2014-05-23,NA,NA,NA,NA,NA,NA,NA,NA,NA,NA,2013-11-26,-9,79,YEARS,>64,F,WHITE,White,NOT HISPANIC OR LATINO,Y,Xanomeline High Dose,Xan_Hi,Xanomeline Low Dose,Xan_Lo,Xanomeline High Dose,Xanomeline Low Dose,2013-12-05,2013-12-05T00:00:00Z,H,2013-12-09,2013-12-09T23:59:59Z,H,DISCONTINUED,2013-12-12,NA,2013-12-05,2013-12-12,5,NA,NA,NA,NA,1,AGITATION,AGITATION,PSYCHIATRIC DISORDERS,NA,AGITATION,NA,NA,HLT_0140,NA,HLGT_0170,NA,PSYCHIATRIC DISORDERS,NA,2013-12-09,2013-12-09,2013-12-09T00:00:00Z,NA,H,2013-12-09,2013-12-09,2013-12-09T23:59:59Z,NA,H,5,5,5,5,1,days,Y,Y,N,N,N,N,N,N,MODERATE,MODERATE,2,NONE,NONE,NA,E16,RECOVERED/RESOLVED,N,N,2013-12-12,2013-12-09T00:00:00Z,54,mg
CDISCPILOT01,01-701-1188,1188,701,USA,AE,2013-02-15,2013-03-25,2013-02-15,2013-03-24,2013-08-04,NA,2013-08-04,NA,NA,NA,NA,NA,NA,NA,NA,NA,NA,2013-02-03,-12,71,YEARS,>64,M,WHITE,White,NOT HISPANIC OR LATINO,Y,Xanomeline Low Dose,Xan_Lo,Xanomeline Low Dose,Xan_Lo,Xanomeline Low Dose,Xanomeline Low Dose,2013-02-15,2013-02-15T00:00:00Z,H,2013-03-24,2013-03-24T23:59:59Z,H,DISCONTINUED,2013-03-25,NA,2013-02-15,2013-03-25,38,NA,NA,NA,NA,3,ERYTHEMA,ERYTHEMA,SKIN AND SUBCUTANEOUS TISSUE DISORDERS,NA,ERYTHEMA,NA,NA,HLT_0284,NA,HLGT_0192,NA,SKIN AND SUBCUTANEOUS TISSUE DISORDERS,NA,2013-02-16,2013-02-16,2013-02-16T00:00:00Z,NA,H,NA,NA,NA,NA,NA,2,2,NA,NA,NA,NA,Y,Y,N,N,N,N,N,N,MODERATE,MODERATE,2,PROBABLE,PROBABLE,NA,E04,NOT RECOVERED/NOT RESOLVED,N,N,2013-03-16,2013-02-16T00:00:00Z,54,mg
CDISCPILOT01,01-701-1188,1188,701,USA,AE,2013-02-15,2013-03-25,2013-02-15,2013-03-24,2013-08-04,NA,2013-08-04,NA,NA,NA,NA,NA,NA,NA,NA,NA,NA,2013-02-03,-12,71,YEARS,>64,M,WHITE,White,NOT HISPANIC OR LATINO,Y,Xanomeline Low Dose,Xan_Lo,Xanomeline Low Dose,Xan_Lo,Xanomeline Low Dose,Xanomeline Low Dose,2013-02-15,2013-02-15T00:00:00Z,H,2013-03-24,2013-03-24T23:59:59Z,H,DISCONTINUED,2013-03-25,NA,2013-02-15,2013-03-25,38,NA,NA,NA,NA,4,PRURITUS,PRURITUS,SKIN AND SUBCUTANEOUS TISSUE DISORDERS,NA,ITCHING,NA,NA,HLT_0778,NA,HLGT_0695,NA,SKIN AND SUBCUTANEOUS TISSUE DISORDERS,NA,2013-02-16,2013-02-16,2013-02-16T00:00:00Z,NA,H,NA,NA,NA,NA,NA,2,2,NA,NA,NA,NA,Y,NA,N,N,N,N,N,N,MODERATE,MODERATE,2,PROBABLE,PROBABLE,NA,E05,NOT RECOVERED/NOT RESOLVED,N,N,2013-03-16,2013-02-16T00:00:00Z,54,mg
CDISCPILOT01,01-701-1188,1188,701,USA,AE,2013-02-15,2013-03-25,2013-02-15,2013-03-24,2013-08-04,NA,2013-08-04,NA,NA,NA,NA,NA,NA,NA,NA,NA,NA,2013-02-03,-12,71,YEARS,>64,M,WHITE,White,NOT HISPANIC OR LATINO,Y,Xanomeline Low Dose,Xan_Lo,Xanomeline Low Dose,Xan_Lo,Xanomeline Low Dose,Xanomeline Low Dose,2013-02-15,2013-02-15T00:00:00Z,H,2013-03-24,2013-03-24T23:59:59Z,H,DISCONTINUED,2013-03-25,NA,2013-02-15,2013-03-25,38,NA,NA,NA,NA,6,URTICARIA,URTICARIA,SKIN AND SUBCUTANEOUS TISSUE DISORDERS,NA,WELTS,NA,NA,HLT_0420,NA,HLGT_0705,NA,SKIN AND SUBCUTANEOUS TISSUE DISORDERS,NA,2013-03-04,2013-03-04,2013-03-04T00:00:00Z,NA,H,NA,NA,NA,NA,NA,18,18,NA,NA,NA,NA,Y,NA,N,N,N,N,N,N,MODERATE,MODERATE,2,PROBABLE,PROBABLE,NA,E06,NOT RECOVERED/NOT RESOLVED,N,N,2013-03-25,2013-03-04T00:00:00Z,54,mg
CDISCPILOT01,01-701-1188,1188,701,USA,AE,2013-02-15,2013-03-25,2013-02-15,2013-03-24,2013-08-04,NA,2013-08-04,NA,NA,NA,NA,NA,NA,NA,NA,NA,NA,2013-02-03,-12,71,YEARS,>64,M,WHITE,White,NOT HISPANIC OR LATINO,Y,Xanomeline Low Dose,Xan_Lo,Xanomeline Low Dose,Xan_Lo,Xanomeline Low Dose,Xanomeline Low Dose,2013-02-15,2013-02-15T00:00:00Z,H,2013-03-24,2013-03-24T23:59:59Z,H,DISCONTINUED,2013-03-25,NA,2013-02-15,2013-03-25,38,NA,NA,NA,NA,1,ERYTHEMA,ERYTHEMA,SKIN AND SUBCUTANEOUS TISSUE DISORDERS,NA,ERYTHEMA,NA,NA,HLT_0284,NA,HLGT_0192,NA,SKIN AND SUBCUTANEOUS TISSUE DISORDERS,NA,2013-02-16,2013-02-16,2013-02-16T00:00:00Z,NA,H,NA,NA,NA,NA,NA,2,2,NA,NA,NA,NA,Y,NA,N,N,N,N,N,N,MILD,MILD,1,PROBABLE,PROBABLE,NA,E04,NOT RECOVERED/NOT RESOLVED,N,N,2013-03-02,2013-02-16T00:00:00Z,54,mg
CDISCPILOT01,01-701-1188,1188,701,USA,AE,2013-02-15,2013-03-25,2013-02-15,2013-03-24,2013-08-04,NA,2013-08-04,NA,NA,NA,NA,NA,NA,NA,NA,NA,NA,2013-02-03,-12,71,YEARS,>64,M,WHITE,White,NOT HISPANIC OR LATINO,Y,Xanomeline Low Dose,Xan_Lo,Xanomeline Low Dose,Xan_Lo,Xanomeline Low Dose,Xanomeline Low Dose,2013-02-15,2013-02-15T00:00:00Z,H,2013-03-24,2013-03-24T23:59:59Z,H,DISCONTINUED,2013-03-25,NA,2013-02-15,2013-03-25,38,NA,NA,NA,NA,2,PRURITUS,PRURITUS,SKIN AND SUBCUTANEOUS TISSUE DISORDERS,NA,ITCHING,NA,NA,HLT_0778,NA,HLGT_0695,NA,SKIN AND SUBCUTANEOUS TISSUE DISORDERS,NA,2013-02-16,2013-02-16,2013-02-16T00:00:00Z,NA,H,NA,NA,NA,NA,NA,2,2,NA,NA,NA,NA,Y,NA,N,N,N,N,N,N,MILD,MILD,1,PROBABLE,PROBABLE,NA,E05,NOT RECOVERED/NOT RESOLVED,N,N,2013-03-02,2013-02-16T00:00:00Z,54,mg
CDISCPILOT01,01-701-1188,1188,701,USA,AE,2013-02-15,2013-03-25,2013-02-15,2013-03-24,2013-08-04,NA,2013-08-04,NA,NA,NA,NA,NA,NA,NA,NA,NA,NA,2013-02-03,-12,71,YEARS,>64,M,WHITE,White,NOT HISPANIC OR LATINO,Y,Xanomeline Low Dose,Xan_Lo,Xanomeline Low Dose,Xan_Lo,Xanomeline Low Dose,Xanomeline Low Dose,2013-02-15,2013-02-15T00:00:00Z,H,2013-03-24,2013-03-24T23:59:59Z,H,DISCONTINUED,2013-03-25,NA,2013-02-15,2013-03-25,38,NA,NA,NA,NA,5,URTICARIA,URTICARIA,SKIN AND SUBCUTANEOUS TISSUE DISORDERS,NA,WELTS,NA,NA,HLT_0420,NA,HLGT_0705,NA,SKIN AND SUBCUTANEOUS TISSUE DISORDERS,NA,2013-03-04,2013-03-04,2013-03-04T00:00:00Z,NA,H,NA,NA,NA,NA,NA,18,18,NA,NA,NA,NA,Y,NA,N,N,N,N,N,N,MILD,MILD,1,PROBABLE,PROBABLE,NA,E06,NOT RECOVERED/NOT RESOLVED,N,N,2013-03-16,2013-03-04T00:00:00Z,54,mg
CDISCPILOT01,01-701-1188,1188,701,USA,AE,2013-02-15,2013-03-25,2013-02-15,2013-03-24,2013-08-04,NA,2013-08-04,NA,NA,NA,NA,NA,NA,NA,NA,NA,NA,2013-02-03,-12,71,YEARS,>64,M,WHITE,White,NOT HISPANIC OR LATINO,Y,Xanomeline Low Dose,Xan_Lo,Xanomeline Low Dose,Xan_Lo,Xanomeline Low Dose,Xanomeline Low Dose,2013-02-15,2013-02-15T00:00:00Z,H,2013-03-24,2013-03-24T23:59:59Z,H,DISCONTINUED,2013-03-25,NA,2013-02-15,2013-03-25,38,NA,NA,NA,NA,7,APPLICATION SITE URTICARIA,APPLICATION SITE URTICARIA,GENERAL DISORDERS AND ADMINISTRATION SITE CONDITIONS,NA,APPLICATION SITE URTICARIA,NA,NA,HLT_0196,NA,HLGT_0233,NA,GENERAL DISORDERS AND ADMINISTRATION SITE CONDITIONS,NA,2013-03-21,2013-03-21,2013-03-21T00:00:00Z,NA,H,NA,NA,NA,NA,NA,35,35,NA,NA,NA,NA,Y,NA,N,N,N,N,N,N,MILD,MILD,1,PROBABLE,PROBABLE,NA,E09,NOT RECOVERED/NOT RESOLVED,N,N,2013-03-25,2013-03-21T00:00:00Z,54,mg
CDISCPILOT01,01-701-1188,1188,701,USA,AE,2013-02-15,2013-03-25,2013-02-15,2013-03-24,2013-08-04,NA,2013-08-04,NA,NA,NA,NA,NA,NA,NA,NA,NA,NA,2013-02-03,-12,71,YEARS,>64,M,WHITE,White,NOT HISPANIC OR LATINO,Y,Xanomeline Low Dose,Xan_Lo,Xanomeline Low Dose,Xan_Lo,Xanomeline Low Dose,Xanomeline Low Dose,2013-02-15,2013-02-15T00:00:00Z,H,2013-03-24,2013-03-24T23:59:59Z,H,DISCONTINUED,2013-03-25,NA,2013-02-15,2013-03-25,38,NA,NA,NA,NA,8,URTICARIA,URTICARIA,SKIN AND SUBCUTANEOUS TISSUE DISORDERS,NA,WELTS,NA,NA,HLT_0420,NA,HLGT_0705,NA,SKIN AND SUBCUTANEOUS TISSUE DISORDERS,NA,2013-03-21,2013-03-21,2013-03-21T00:00:00Z,NA,H,NA,NA,NA,NA,NA,35,35,NA,NA,NA,NA,Y,NA,N,N,N,N,N,N,MILD,MILD,1,PROBABLE,PROBABLE,NA,E10,NOT RECOVERED/NOT RESOLVED,N,N,2013-03-25,2013-03-21T00:00:00Z,54,mg
CDISCPILOT01,01-701-1192,1192,701,USA,AE,2012-07-22,2013-01-20,2012-07-22,2013-01-20,2013-01-20T15:47,NA,NA,NA,NA,NA,NA,NA,NA,NA,NA,NA,NA,2012-07-08,-14,80,YEARS,>64,F,WHITE,White,NOT HISPANIC OR LATINO,Y,Xanomeline Low Dose,Xan_Lo,Xanomeline Low Dose,Xan_Lo,Xanomeline Low Dose,Xanomeline Low Dose,2012-07-22,2012-07-22T00:00:00Z,H,2013-01-20,2013-01-20T23:59:59Z,H,COMPLETED,2013-01-20,NA,2012-07-22,2013-01-20,183,NA,NA,NA,NA,7,PNEUMONIA,PNEUMONIA,INFECTIONS AND INFESTATIONS,NA,PNEUMONIA,NA,NA,HLT_0251,NA,HLGT_0671,NA,INFECTIONS AND INFESTATIONS,NA,2012-09-07,2012-09-07,2012-09-07T00:00:00Z,NA,H,2012-10-06,2012-10-06,2012-10-06T23:59:59Z,NA,H,48,48,77,77,30,days,Y,Y,N,N,N,Y,N,N,MODERATE,MODERATE,2,NONE,NONE,NA,E10,NOT RECOVERED/NOT RESOLVED,N,N,2012-09-23,2012-09-07T00:00:00Z,54,mg
CDISCPILOT01,01-701-1192,1192,701,USA,AE,2012-07-22,2013-01-20,2012-07-22,2013-01-20,2013-01-20T15:47,NA,NA,NA,NA,NA,NA,NA,NA,NA,NA,NA,NA,2012-07-08,-14,80,YEARS,>64,F,WHITE,White,NOT HISPANIC OR LATINO,Y,Xanomeline Low Dose,Xan_Lo,Xanomeline Low Dose,Xan_Lo,Xanomeline Low Dose,Xanomeline Low Dose,2012-07-22,2012-07-22T00:00:00Z,H,2013-01-20,2013-01-20T23:59:59Z,H,COMPLETED,2013-01-20,NA,2012-07-22,2013-01-20,183,NA,NA,NA,NA,8,MUSCULAR WEAKNESS,MUSCULAR WEAKNESS,MUSCULOSKELETAL AND CONNECTIVE TISSUE DISORDERS,NA,MUSCULAR WEAKNESS,NA,NA,HLT_0444,NA,HLGT_0211,NA,MUSCULOSKELETAL AND CONNECTIVE TISSUE DISORDERS,NA,2012-09-07,2012-09-07,2012-09-07T00:00:00Z,NA,H,2012-09-30,2012-09-30,2012-09-30T23:59:59Z,NA,H,48,48,71,71,24,days,Y,NA,N,N,N,N,N,N,MODERATE,MODERATE,2,NONE,NONE,NA,E11,NOT RECOVERED/NOT RESOLVED,N,N,2012-09-23,2012-09-07T00:00:00Z,54,mg
CDISCPILOT01,01-701-1192,1192,701,USA,AE,2012-07-22,2013-01-20,2012-07-22,2013-01-20,2013-01-20T15:47,NA,NA,NA,NA,NA,NA,NA,NA,NA,NA,NA,NA,2012-07-08,-14,80,YEARS,>64,F,WHITE,White,NOT HISPANIC OR LATINO,Y,Xanomeline Low Dose,Xan_Lo,Xanomeline Low Dose,Xan_Lo,Xanomeline Low Dose,Xanomeline Low Dose,2012-07-22,2012-07-22T00:00:00Z,H,2013-01-20,2013-01-20T23:59:59Z,H,COMPLETED,2013-01-20,NA,2012-07-22,2013-01-20,183,NA,NA,NA,NA,10,PNEUMONIA,PNEUMONIA,INFECTIONS AND INFESTATIONS,NA,PNEUMONIA,NA,NA,HLT_0251,NA,HLGT_0671,NA,INFECTIONS AND INFESTATIONS,NA,2012-09-07,2012-09-07,2012-09-07T00:00:00Z,NA,H,2012-10-06,2012-10-06,2012-10-06T23:59:59Z,NA,H,48,48,77,77,30,days,Y,NA,N,N,N,Y,N,N,MODERATE,MODERATE,2,NONE,NONE,NA,E10,RECOVERED/RESOLVED,N,N,2012-10-14,2012-09-07T00:00:00Z,54,mg
CDISCPILOT01,01-701-1192,1192,701,USA,AE,2012-07-22,2013-01-20,2012-07-22,2013-01-20,2013-01-20T15:47,NA,NA,NA,NA,NA,NA,NA,NA,NA,NA,NA,NA,2012-07-08,-14,80,YEARS,>64,F,WHITE,White,NOT HISPANIC OR LATINO,Y,Xanomeline Low Dose,Xan_Lo,Xanomeline Low Dose,Xan_Lo,Xanomeline Low Dose,Xanomeline Low Dose,2012-07-22,2012-07-22T00:00:00Z,H,2013-01-20,2013-01-20T23:59:59Z,H,COMPLETED,2013-01-20,NA,2012-07-22,2013-01-20,183,NA,NA,NA,NA,11,MUSCULAR WEAKNESS,MUSCULAR WEAKNESS,MUSCULOSKELETAL AND CONNECTIVE TISSUE DISORDERS,NA,MUSCULAR WEAKNESS,NA,NA,HLT_0444,NA,HLGT_0211,NA,MUSCULOSKELETAL AND CONNECTIVE TISSUE DISORDERS,NA,2012-09-07,2012-09-07,2012-09-07T00:00:00Z,NA,H,2012-09-30,2012-09-30,2012-09-30T23:59:59Z,NA,H,48,48,71,71,24,days,Y,NA,N,N,N,N,N,N,MODERATE,MODERATE,2,NONE,NONE,NA,E11,RECOVERED/RESOLVED,N,N,2012-10-14,2012-09-07T00:00:00Z,54,mg
CDISCPILOT01,01-701-1192,1192,701,USA,AE,2012-07-22,2013-01-20,2012-07-22,2013-01-20,2013-01-20T15:47,NA,NA,NA,NA,NA,NA,NA,NA,NA,NA,NA,NA,2012-07-08,-14,80,YEARS,>64,F,WHITE,White,NOT HISPANIC OR LATINO,Y,Xanomeline Low Dose,Xan_Lo,Xanomeline Low Dose,Xan_Lo,Xanomeline Low Dose,Xanomeline Low Dose,2012-07-22,2012-07-22T00:00:00Z,H,2013-01-20,2013-01-20T23:59:59Z,H,COMPLETED,2013-01-20,NA,2012-07-22,2013-01-20,183,NA,NA,NA,NA,1,NASAL MUCOSA BIOPSY,NASAL MUCOSA BIOPSY,INVESTIGATIONS,NA,NASAL MUCOSA BIOPSY,NA,NA,HLT_0680,NA,HLGT_0396,NA,INVESTIGATIONS,NA,2012-08-03,2012-08-03,2012-08-03T00:00:00Z,NA,H,2012-08-03,2012-08-03,2012-08-03T23:59:59Z,NA,H,13,13,13,13,1,days,Y,NA,N,N,N,N,N,N,MILD,MILD,1,NONE,NONE,NA,E06,RECOVERED/RESOLVED,N,N,2012-08-07,2012-08-03T00:00:00Z,54,mg
CDISCPILOT01,01-701-1192,1192,701,USA,AE,2012-07-22,2013-01-20,2012-07-22,2013-01-20,2013-01-20T15:47,NA,NA,NA,NA,NA,NA,NA,NA,NA,NA,NA,NA,2012-07-08,-14,80,YEARS,>64,F,WHITE,White,NOT HISPANIC OR LATINO,Y,Xanomeline Low Dose,Xan_Lo,Xanomeline Low Dose,Xan_Lo,Xanomeline Low Dose,Xanomeline Low Dose,2012-07-22,2012-07-22T00:00:00Z,H,2013-01-20,2013-01-20T23:59:59Z,H,COMPLETED,2013-01-20,NA,2012-07-22,2013-01-20,183,NA,NA,NA,NA,2,SECRETION DISCHARGE,SECRETION DISCHARGE,GENERAL DISORDERS AND ADMINISTRATION SITE CONDITIONS,NA,SECRETION DISCHARGE,NA,NA,HLT_0683,NA,HLGT_0575,NA,GENERAL DISORDERS AND ADMINISTRATION SITE CONDITIONS,NA,2012-08-07,2012-08-07,2012-08-07T00:00:00Z,NA,H,2012-09-14,2012-09-14,2012-09-14T23:59:59Z,NA,H,17,17,55,55,39,days,Y,NA,N,N,N,N,N,N,MILD,MILD,1,NONE,NONE,NA,E08,NOT RECOVERED/NOT RESOLVED,N,N,2012-08-07,2012-08-07T00:00:00Z,54,mg
CDISCPILOT01,01-701-1192,1192,701,USA,AE,2012-07-22,2013-01-20,2012-07-22,2013-01-20,2013-01-20T15:47,NA,NA,NA,NA,NA,NA,NA,NA,NA,NA,NA,NA,2012-07-08,-14,80,YEARS,>64,F,WHITE,White,NOT HISPANIC OR LATINO,Y,Xanomeline Low Dose,Xan_Lo,Xanomeline Low Dose,Xan_Lo,Xanomeline Low Dose,Xanomeline Low Dose,2012-07-22,2012-07-22T00:00:00Z,H,2013-01-20,2013-01-20T23:59:59Z,H,COMPLETED,2013-01-20,NA,2012-07-22,2013-01-20,183,NA,NA,NA,NA,3,ERYTHEMA,ERYTHEMA,SKIN AND SUBCUTANEOUS TISSUE DISORDERS,NA,ERYTHEMA FACIAL,NA,NA,HLT_0284,NA,HLGT_0192,NA,SKIN AND SUBCUTANEOUS TISSUE DISORDERS,NA,2012-08-07,2012-08-07,2012-08-07T00:00:00Z,NA,H,2012-09-14,2012-09-14,2012-09-14T23:59:59Z,NA,H,17,17,55,55,39,days,Y,NA,N,N,N,N,N,N,MILD,MILD,1,NONE,NONE,NA,E09,NOT RECOVERED/NOT RESOLVED,N,N,2012-08-07,2012-08-07T00:00:00Z,54,mg
CDISCPILOT01,01-701-1192,1192,701,USA,AE,2012-07-22,2013-01-20,2012-07-22,2013-01-20,2013-01-20T15:47,NA,NA,NA,NA,NA,NA,NA,NA,NA,NA,NA,NA,2012-07-08,-14,80,YEARS,>64,F,WHITE,White,NOT HISPANIC OR LATINO,Y,Xanomeline Low Dose,Xan_Lo,Xanomeline Low Dose,Xan_Lo,Xanomeline Low Dose,Xanomeline Low Dose,2012-07-22,2012-07-22T00:00:00Z,H,2013-01-20,2013-01-20T23:59:59Z,H,COMPLETED,2013-01-20,NA,2012-07-22,2013-01-20,183,NA,NA,NA,NA,5,SECRETION DISCHARGE,SECRETION DISCHARGE,GENERAL DISORDERS AND ADMINISTRATION SITE CONDITIONS,NA,SECRETION DISCHARGE,NA,NA,HLT_0683,NA,HLGT_0575,NA,GENERAL DISORDERS AND ADMINISTRATION SITE CONDITIONS,NA,2012-08-07,2012-08-07,2012-08-07T00:00:00Z,NA,H,2012-09-14,2012-09-14,2012-09-14T23:59:59Z,NA,H,17,17,55,55,39,days,Y,NA,N,N,N,N,N,N,MILD,MILD,1,NONE,NONE,NA,E08,RECOVERED/RESOLVED,N,N,2012-09-23,2012-08-07T00:00:00Z,54,mg
CDISCPILOT01,01-701-1192,1192,701,USA,AE,2012-07-22,2013-01-20,2012-07-22,2013-01-20,2013-01-20T15:47,NA,NA,NA,NA,NA,NA,NA,NA,NA,NA,NA,NA,2012-07-08,-14,80,YEARS,>64,F,WHITE,White,NOT HISPANIC OR LATINO,Y,Xanomeline Low Dose,Xan_Lo,Xanomeline Low Dose,Xan_Lo,Xanomeline Low Dose,Xanomeline Low Dose,2012-07-22,2012-07-22T00:00:00Z,H,2013-01-20,2013-01-20T23:59:59Z,H,COMPLETED,2013-01-20,NA,2012-07-22,2013-01-20,183,NA,NA,NA,NA,6,ERYTHEMA,ERYTHEMA,SKIN AND SUBCUTANEOUS TISSUE DISORDERS,NA,ERYTHEMA FACIAL,NA,NA,HLT_0284,NA,HLGT_0192,NA,SKIN AND SUBCUTANEOUS TISSUE DISORDERS,NA,2012-08-07,2012-08-07,2012-08-07T00:00:00Z,NA,H,2012-09-14,2012-09-14,2012-09-14T23:59:59Z,NA,H,17,17,55,55,39,days,Y,NA,N,N,N,N,N,N,MILD,MILD,1,NONE,NONE,NA,E09,RECOVERED/RESOLVED,N,N,2012-09-23,2012-08-07T00:00:00Z,54,mg
CDISCPILOT01,01-701-1192,1192,701,USA,AE,2012-07-22,2013-01-20,2012-07-22,2013-01-20,2013-01-20T15:47,NA,NA,NA,NA,NA,NA,NA,NA,NA,NA,NA,NA,2012-07-08,-14,80,YEARS,>64,F,WHITE,White,NOT HISPANIC OR LATINO,Y,Xanomeline Low Dose,Xan_Lo,Xanomeline Low Dose,Xan_Lo,Xanomeline Low Dose,Xanomeline Low Dose,2012-07-22,2012-07-22T00:00:00Z,H,2013-01-20,2013-01-20T23:59:59Z,H,COMPLETED,2013-01-20,NA,2012-07-22,2013-01-20,183,NA,NA,NA,NA,12,APPLICATION SITE IRRITATION,APPLICATION SITE IRRITATION,GENERAL DISORDERS AND ADMINISTRATION SITE CONDITIONS,NA,APPLICATION SITE BURNING,NA,NA,HLT_0061,NA,HLGT_0346,NA,GENERAL DISORDERS AND ADMINISTRATION SITE CONDITIONS,NA,2012-12-05,2012-12-05,2012-12-05T00:00:00Z,NA,H,2012-12-16,2012-12-16,2012-12-16T23:59:59Z,NA,H,137,137,148,148,12,days,Y,NA,N,N,N,N,N,N,MILD,MILD,1,PROBABLE,PROBABLE,NA,E12,NOT RECOVERED/NOT RESOLVED,N,N,2012-12-13,2012-12-05T00:00:00Z,54,mg
CDISCPILOT01,01-701-1192,1192,701,USA,AE,2012-07-22,2013-01-20,2012-07-22,2013-01-20,2013-01-20T15:47,NA,NA,NA,NA,NA,NA,NA,NA,NA,NA,NA,NA,2012-07-08,-14,80,YEARS,>64,F,WHITE,White,NOT HISPANIC OR LATINO,Y,Xanomeline Low Dose,Xan_Lo,Xanomeline Low Dose,Xan_Lo,Xanomeline Low Dose,Xanomeline Low Dose,2012-07-22,2012-07-22T00:00:00Z,H,2013-01-20,2013-01-20T23:59:59Z,H,COMPLETED,2013-01-20,NA,2012-07-22,2013-01-20,183,NA,NA,NA,NA,13,APPLICATION SITE ERYTHEMA,APPLICATION SITE ERYTHEMA,GENERAL DISORDERS AND ADMINISTRATION SITE CONDITIONS,NA,APPLICATION SITE REDNESS,NA,NA,HLT_0617,NA,HLGT_0152,NA,GENERAL DISORDERS AND ADMINISTRATION SITE CONDITIONS,NA,2012-12-05,2012-12-05,2012-12-05T00:00:00Z,NA,H,NA,NA,NA,NA,NA,137,137,NA,NA,NA,NA,Y,NA,N,N,N,N,N,N,MILD,MILD,1,PROBABLE,PROBABLE,NA,E13,NOT RECOVERED/NOT RESOLVED,N,N,2012-12-13,2012-12-05T00:00:00Z,54,mg
CDISCPILOT01,01-701-1192,1192,701,USA,AE,2012-07-22,2013-01-20,2012-07-22,2013-01-20,2013-01-20T15:47,NA,NA,NA,NA,NA,NA,NA,NA,NA,NA,NA,NA,2012-07-08,-14,80,YEARS,>64,F,WHITE,White,NOT HISPANIC OR LATINO,Y,Xanomeline Low Dose,Xan_Lo,Xanomeline Low Dose,Xan_Lo,Xanomeline Low Dose,Xanomeline Low Dose,2012-07-22,2012-07-22T00:00:00Z,H,2013-01-20,2013-01-20T23:59:59Z,H,COMPLETED,2013-01-20,NA,2012-07-22,2013-01-20,183,NA,NA,NA,NA,14,APPLICATION SITE PRURITUS,APPLICATION SITE PRURITUS,GENERAL DISORDERS AND ADMINISTRATION SITE CONDITIONS,NA,APPLICATION SITE ITCHING,NA,NA,HLT_0317,NA,HLGT_0338,NA,GENERAL DISORDERS AND ADMINISTRATION SITE CONDITIONS,NA,2012-12-05,2012-12-05,2012-12-05T00:00:00Z,NA,H,NA,NA,NA,NA,NA,137,137,NA,NA,NA,NA,Y,NA,N,N,N,N,N,N,MILD,MILD,1,PROBABLE,PROBABLE,NA,E14,NOT RECOVERED/NOT RESOLVED,N,N,2012-12-13,2012-12-05T00:00:00Z,54,mg
CDISCPILOT01,01-701-1192,1192,701,USA,AE,2012-07-22,2013-01-20,2012-07-22,2013-01-20,2013-01-20T15:47,NA,NA,NA,NA,NA,NA,NA,NA,NA,NA,NA,NA,2012-07-08,-14,80,YEARS,>64,F,WHITE,White,NOT HISPANIC OR LATINO,Y,Xanomeline Low Dose,Xan_Lo,Xanomeline Low Dose,Xan_Lo,Xanomeline Low Dose,Xanomeline Low Dose,2012-07-22,2012-07-22T00:00:00Z,H,2013-01-20,2013-01-20T23:59:59Z,H,COMPLETED,2013-01-20,NA,2012-07-22,2013-01-20,183,NA,NA,NA,NA,15,APPLICATION SITE IRRITATION,APPLICATION SITE IRRITATION,GENERAL DISORDERS AND ADMINISTRATION SITE CONDITIONS,NA,APPLICATION SITE BURNING,NA,NA,HLT_0061,NA,HLGT_0346,NA,GENERAL DISORDERS AND ADMINISTRATION SITE CONDITIONS,NA,2012-12-05,2012-12-05,2012-12-05T00:00:00Z,NA,H,2012-12-16,2012-12-16,2012-12-16T23:59:59Z,NA,H,137,137,148,148,12,days,Y,NA,N,N,N,N,N,N,MILD,MILD,1,PROBABLE,PROBABLE,NA,E12,RECOVERED/RESOLVED,N,N,2013-01-11,2012-12-05T00:00:00Z,54,mg
CDISCPILOT01,01-701-1203,1203,701,USA,AE,2013-02-02,2013-08-03,2013-02-02,2013-08-03,2013-08-03T10:10,NA,NA,NA,NA,NA,NA,NA,NA,NA,NA,NA,NA,2013-01-25,-8,81,YEARS,>64,F,BLACK OR AFRICAN AMERICAN,Non-white,NOT HISPANIC OR LATINO,Y,Placebo,Pbo,Placebo,Pbo,Placebo,Placebo,2013-02-02,2013-02-02T00:00:00Z,H,2013-08-03,2013-08-03T23:59:59Z,H,COMPLETED,2013-08-03,NA,2013-02-02,2013-08-03,183,NA,NA,NA,NA,1,EYE LASER SURGERY,EYE LASER SURGERY,SURGICAL AND MEDICAL PROCEDURES,NA,EYE LASER SURGERY,NA,NA,HLT_0355,NA,HLGT_0189,NA,SURGICAL AND MEDICAL PROCEDURES,NA,2013-03-21,2013-03-21,2013-03-21T00:00:00Z,NA,H,2013-03-21,2013-03-21,2013-03-21T23:59:59Z,NA,H,48,48,48,48,1,days,Y,Y,N,N,N,N,N,N,MILD,MILD,1,NONE,NONE,NA,E05,RECOVERED/RESOLVED,N,N,2013-03-30,2013-03-21T00:00:00Z,0,mg
CDISCPILOT01,01-701-1211,1211,701,USA,AE,2012-11-15,2013-01-14,2012-11-15,2013-01-12,2013-01-14,NA,NA,2013-01-14,61,Y,2,<= 30,Y,NA,AE,NA,NA,2012-10-30,-16,76,YEARS,>64,F,WHITE,White,NOT HISPANIC OR LATINO,Y,Xanomeline Low Dose,Xan_Lo,Xanomeline Low Dose,Xan_Lo,Xanomeline Low Dose,Xanomeline Low Dose,2012-11-15,2012-11-15T00:00:00Z,H,2013-01-12,2013-01-12T23:59:59Z,H,DISCONTINUED,2013-01-14,NA,2012-11-15,2013-01-14,59,2013-01-14,NA,SUDDEN DEATH,ADVERSE EVENT,9,SUDDEN DEATH,SUDDEN DEATH,GENERAL DISORDERS AND ADMINISTRATION SITE CONDITIONS,NA,SUDDEN DEATH,NA,NA,HLT_0142,NA,HLGT_0272,NA,GENERAL DISORDERS AND ADMINISTRATION SITE CONDITIONS,NA,2013-01-14,2013-01-14,2013-01-14T00:00:00Z,NA,H,2013-01-14,2013-01-14,2013-01-14T23:59:59Z,NA,H,61,61,61,61,1,days,Y,Y,N,Y,Y,N,N,N,SEVERE,SEVERE,3,NONE,NONE,NA,E11,FATAL,N,N,2013-01-14,2013-01-12T00:00:00Z,NA,NA
CDISCPILOT01,01-701-1211,1211,701,USA,AE,2012-11-15,2013-01-14,2012-11-15,2013-01-12,2013-01-14,NA,NA,2013-01-14,61,Y,2,<= 30,Y,NA,AE,NA,NA,2012-10-30,-16,76,YEARS,>64,F,WHITE,White,NOT HISPANIC OR LATINO,Y,Xanomeline Low Dose,Xan_Lo,Xanomeline Low Dose,Xan_Lo,Xanomeline Low Dose,Xanomeline Low Dose,2012-11-15,2012-11-15T00:00:00Z,H,2013-01-12,2013-01-12T23:59:59Z,H,DISCONTINUED,2013-01-14,NA,2012-11-15,2013-01-14,59,2013-01-14,NA,SUDDEN DEATH,ADVERSE EVENT,2,JOINT DISLOCATION,JOINT DISLOCATION,"INJURY, POISONING AND PROCEDURAL COMPLICATIONS",NA,SHOULDER DISLOCATION,NA,NA,HLT_0035,NA,HLGT_0227,NA,"INJURY, POISONING AND PROCEDURAL COMPLICATIONS",NA,2012-11-21,2012-11-21,2012-11-21T00:00:00Z,NA,H,2012-11-21,2012-11-21,2012-11-21T23:59:59Z,NA,H,7,7,7,7,1,days,Y,NA,N,N,N,N,N,N,MODERATE,MODERATE,2,NONE,NONE,NA,E03,RECOVERED/RESOLVED,N,N,2012-11-28,2012-11-21T00:00:00Z,54,mg
CDISCPILOT01,01-701-1211,1211,701,USA,AE,2012-11-15,2013-01-14,2012-11-15,2013-01-12,2013-01-14,NA,NA,2013-01-14,61,Y,2,<= 30,Y,NA,AE,NA,NA,2012-10-30,-16,76,YEARS,>64,F,WHITE,White,NOT HISPANIC OR LATINO,Y,Xanomeline Low Dose,Xan_Lo,Xanomeline Low Dose,Xan_Lo,Xanomeline Low Dose,Xanomeline Low Dose,2012-11-15,2012-11-15T00:00:00Z,H,2013-01-12,2013-01-12T23:59:59Z,H,DISCONTINUED,2013-01-14,NA,2012-11-15,2013-01-14,59,2013-01-14,NA,SUDDEN DEATH,ADVERSE EVENT,7,CONFUSIONAL STATE,CONFUSIONAL STATE,PSYCHIATRIC DISORDERS,NA,CONFUSION,NA,NA,HLT_0642,NA,HLGT_0329,NA,PSYCHIATRIC DISORDERS,NA,2013-01-11,2013-01-11,2013-01-11T00:00:00Z,NA,H,NA,NA,NA,NA,NA,58,58,NA,NA,NA,NA,Y,NA,N,N,N,N,N,N,MODERATE,MODERATE,2,NONE,NONE,NA,E12,NOT RECOVERED/NOT RESOLVED,N,N,2013-01-14,2013-01-11T00:00:00Z,54,mg
CDISCPILOT01,01-701-1211,1211,701,USA,AE,2012-11-15,2013-01-14,2012-11-15,2013-01-12,2013-01-14,NA,NA,2013-01-14,61,Y,2,<= 30,Y,NA,AE,NA,NA,2012-10-30,-16,76,YEARS,>64,F,WHITE,White,NOT HISPANIC OR LATINO,Y,Xanomeline Low Dose,Xan_Lo,Xanomeline Low Dose,Xan_Lo,Xanomeline Low Dose,Xanomeline Low Dose,2012-11-15,2012-11-15T00:00:00Z,H,2013-01-12,2013-01-12T23:59:59Z,H,DISCONTINUED,2013-01-14,NA,2012-11-15,2013-01-14,59,2013-01-14,NA,SUDDEN DEATH,ADVERSE EVENT,8,DYSPNOEA,DYSPNOEA,"RESPIRATORY, THORACIC AND MEDIASTINAL DISORDERS",NA,SHORTNESS OF BREATH,NA,NA,HLT_0296,NA,HLGT_0255,NA,"RESPIRATORY, THORACIC AND MEDIASTINAL DISORDERS",NA,2013-01-11,2013-01-11,2013-01-11T00:00:00Z,NA,H,NA,NA,NA,NA,NA,58,58,NA,NA,NA,NA,Y,NA,N,N,N,N,N,N,MODERATE,MODERATE,2,NONE,NONE,NA,E13,NOT RECOVERED/NOT RESOLVED,N,N,2013-01-14,2013-01-11T00:00:00Z,54,mg
CDISCPILOT01,01-701-1211,1211,701,USA,AE,2012-11-15,2013-01-14,2012-11-15,2013-01-12,2013-01-14,NA,NA,2013-01-14,61,Y,2,<= 30,Y,NA,AE,NA,NA,2012-10-30,-16,76,YEARS,>64,F,WHITE,White,NOT HISPANIC OR LATINO,Y,Xanomeline Low Dose,Xan_Lo,Xanomeline Low Dose,Xan_Lo,Xanomeline Low Dose,Xanomeline Low Dose,2012-11-15,2012-11-15T00:00:00Z,H,2013-01-12,2013-01-12T23:59:59Z,H,DISCONTINUED,2013-01-14,NA,2012-11-15,2013-01-14,59,2013-01-14,NA,SUDDEN DEATH,ADVERSE EVENT,1,APPLICATION SITE PRURITUS,APPLICATION SITE PRURITUS,GENERAL DISORDERS AND ADMINISTRATION SITE CONDITIONS,NA,APPLICATION SITE ITCHING,NA,NA,HLT_0317,NA,HLGT_0338,NA,GENERAL DISORDERS AND ADMINISTRATION SITE CONDITIONS,NA,2012-11-16,2012-11-16,2012-11-16T00:00:00Z,NA,H,NA,NA,NA,NA,NA,2,2,NA,NA,NA,NA,Y,NA,N,N,N,N,N,N,MILD,MILD,1,POSSIBLE,POSSIBLE,NA,E08,NOT RECOVERED/NOT RESOLVED,N,N,2012-11-28,2012-11-16T00:00:00Z,54,mg
CDISCPILOT01,01-701-1211,1211,701,USA,AE,2012-11-15,2013-01-14,2012-11-15,2013-01-12,2013-01-14,NA,NA,2013-01-14,61,Y,2,<= 30,Y,NA,AE,NA,NA,2012-10-30,-16,76,YEARS,>64,F,WHITE,White,NOT HISPANIC OR LATINO,Y,Xanomeline Low Dose,Xan_Lo,Xanomeline Low Dose,Xan_Lo,Xanomeline Low Dose,Xanomeline Low Dose,2012-11-15,2012-11-15T00:00:00Z,H,2013-01-12,2013-01-12T23:59:59Z,H,DISCONTINUED,2013-01-14,NA,2012-11-15,2013-01-14,59,2013-01-14,NA,SUDDEN DEATH,ADVERSE EVENT,3,SHOULDER PAIN,SHOULDER PAIN,MUSCULOSKELETAL AND CONNECTIVE TISSUE DISORDERS,NA,SHOULDER PAIN,NA,NA,HLT_0527,NA,HLGT_0288,NA,MUSCULOSKELETAL AND CONNECTIVE TISSUE DISORDERS,NA,2012-11-21,2012-11-21,2012-11-21T00:00:00Z,NA,H,NA,NA,NA,NA,NA,7,7,NA,NA,NA,NA,Y,NA,N,N,N,N,N,N,MILD,MILD,1,NONE,NONE,NA,E04,NOT RECOVERED/NOT RESOLVED,N,N,2012-11-28,2012-11-21T00:00:00Z,54,mg
CDISCPILOT01,01-701-1211,1211,701,USA,AE,2012-11-15,2013-01-14,2012-11-15,2013-01-12,2013-01-14,NA,NA,2013-01-14,61,Y,2,<= 30,Y,NA,AE,NA,NA,2012-10-30,-16,76,YEARS,>64,F,WHITE,White,NOT HISPANIC OR LATINO,Y,Xanomeline Low Dose,Xan_Lo,Xanomeline Low Dose,Xan_Lo,Xanomeline Low Dose,Xanomeline Low Dose,2012-11-15,2012-11-15T00:00:00Z,H,2013-01-12,2013-01-12T23:59:59Z,H,DISCONTINUED,2013-01-14,NA,2012-11-15,2013-01-14,59,2013-01-14,NA,SUDDEN DEATH,ADVERSE EVENT,4,INCONTINENCE,INCONTINENCE,RENAL AND URINARY DISORDERS,NA,INCONTINENCE,NA,NA,HLT_0560,NA,HLGT_0503,NA,RENAL AND URINARY DISORDERS,NA,2012-11-22,2012-11-22,2012-11-22T00:00:00Z,NA,H,NA,NA,NA,NA,NA,8,8,NA,NA,NA,NA,Y,NA,N,N,N,N,N,N,MILD,MILD,1,NONE,NONE,NA,E09,NOT RECOVERED/NOT RESOLVED,N,N,2012-11-28,2012-11-22T00:00:00Z,54,mg
CDISCPILOT01,01-701-1211,1211,701,USA,AE,2012-11-15,2013-01-14,2012-11-15,2013-01-12,2013-01-14,NA,NA,2013-01-14,61,Y,2,<= 30,Y,NA,AE,NA,NA,2012-10-30,-16,76,YEARS,>64,F,WHITE,White,NOT HISPANIC OR LATINO,Y,Xanomeline Low Dose,Xan_Lo,Xanomeline Low Dose,Xan_Lo,Xanomeline Low Dose,Xanomeline Low Dose,2012-11-15,2012-11-15T00:00:00Z,H,2013-01-12,2013-01-12T23:59:59Z,H,DISCONTINUED,2013-01-14,NA,2012-11-15,2013-01-14,59,2013-01-14,NA,SUDDEN DEATH,ADVERSE EVENT,5,APPLICATION SITE ERYTHEMA,APPLICATION SITE ERYTHEMA,GENERAL DISORDERS AND ADMINISTRATION SITE CONDITIONS,NA,APPLICATION SITE REDNESS,NA,NA,HLT_0617,NA,HLGT_0152,NA,GENERAL DISORDERS AND ADMINISTRATION SITE CONDITIONS,NA,2012-11-29,2012-11-29,2012-11-29T00:00:00Z,NA,H,NA,NA,NA,NA,NA,15,15,NA,NA,NA,NA,Y,NA,N,N,N,N,N,N,MILD,MILD,1,POSSIBLE,POSSIBLE,NA,E05,NOT RECOVERED/NOT RESOLVED,N,N,2012-12-11,2012-11-29T00:00:00Z,54,mg
CDISCPILOT01,01-701-1211,1211,701,USA,AE,2012-11-15,2013-01-14,2012-11-15,2013-01-12,2013-01-14,NA,NA,2013-01-14,61,Y,2,<= 30,Y,NA,AE,NA,NA,2012-10-30,-16,76,YEARS,>64,F,WHITE,White,NOT HISPANIC OR LATINO,Y,Xanomeline Low Dose,Xan_Lo,Xanomeline Low Dose,Xan_Lo,Xanomeline Low Dose,Xanomeline Low Dose,2012-11-15,2012-11-15T00:00:00Z,H,2013-01-12,2013-01-12T23:59:59Z,H,DISCONTINUED,2013-01-14,NA,2012-11-15,2013-01-14,59,2013-01-14,NA,SUDDEN DEATH,ADVERSE EVENT,6,SKIN LACERATION,SKIN LACERATION,"INJURY, POISONING AND PROCEDURAL COMPLICATIONS",NA,LACERATION OF FACE,NA,NA,HLT_0075,NA,HLGT_0118,NA,"INJURY, POISONING AND PROCEDURAL COMPLICATIONS",NA,2012-12-09,2012-12-09,2012-12-09T00:00:00Z,NA,H,NA,NA,NA,NA,NA,25,25,NA,NA,NA,NA,Y,NA,N,N,N,N,N,N,MILD,MILD,1,NONE,NONE,NA,E06,NOT RECOVERED/NOT RESOLVED,N,N,2012-12-11,2012-12-09T00:00:00Z,54,mg
CDISCPILOT01,01-701-1239,1239,701,USA,AE,2014-01-11,2014-07-11,2014-01-11,2014-07-10,2014-07-11T15:40,NA,NA,NA,NA,NA,NA,NA,NA,NA,NA,NA,NA,2013-12-28,-14,56,YEARS,18-64,M,WHITE,White,HISPANIC OR LATINO,Y,Xanomeline High Dose,Xan_Hi,Xanomeline High Dose,Xan_Hi,Xanomeline High Dose,Xanomeline High Dose,2014-01-11,2014-01-11T00:00:00Z,H,2014-07-10,2014-07-10T23:59:59Z,H,COMPLETED,2014-07-11,NA,2014-01-11,2014-07-11,181,NA,NA,NA,NA,6,ERYTHEMA,ERYTHEMA,SKIN AND SUBCUTANEOUS TISSUE DISORDERS,NA,ERYTHEMA,NA,NA,HLT_0284,NA,HLGT_0192,NA,SKIN AND SUBCUTANEOUS TISSUE DISORDERS,NA,2014-01-12,2014-01-12,2014-01-12T00:00:00Z,NA,H,NA,NA,NA,NA,NA,2,2,NA,NA,NA,NA,Y,Y,N,N,N,N,N,N,MODERATE,MODERATE,2,POSSIBLE,POSSIBLE,NA,E11,NOT RECOVERED/NOT RESOLVED,N,N,2014-02-19,2014-01-12T00:00:00Z,54,mg
CDISCPILOT01,01-701-1239,1239,701,USA,AE,2014-01-11,2014-07-11,2014-01-11,2014-07-10,2014-07-11T15:40,NA,NA,NA,NA,NA,NA,NA,NA,NA,NA,NA,NA,2013-12-28,-14,56,YEARS,18-64,M,WHITE,White,HISPANIC OR LATINO,Y,Xanomeline High Dose,Xan_Hi,Xanomeline High Dose,Xan_Hi,Xanomeline High Dose,Xanomeline High Dose,2014-01-11,2014-01-11T00:00:00Z,H,2014-07-10,2014-07-10T23:59:59Z,H,COMPLETED,2014-07-11,NA,2014-01-11,2014-07-11,181,NA,NA,NA,NA,1,ERYTHEMA,ERYTHEMA,SKIN AND SUBCUTANEOUS TISSUE DISORDERS,NA,ERYTHEMA,NA,NA,HLT_0284,NA,HLGT_0192,NA,SKIN AND SUBCUTANEOUS TISSUE DISORDERS,NA,2014-01-12,2014-01-12,2014-01-12T00:00:00Z,NA,H,NA,NA,NA,NA,NA,2,2,NA,NA,NA,NA,Y,NA,N,N,N,N,N,N,MILD,MILD,1,POSSIBLE,POSSIBLE,NA,E11,NOT RECOVERED/NOT RESOLVED,N,N,2014-01-25,2014-01-12T00:00:00Z,54,mg
CDISCPILOT01,01-701-1239,1239,701,USA,AE,2014-01-11,2014-07-11,2014-01-11,2014-07-10,2014-07-11T15:40,NA,NA,NA,NA,NA,NA,NA,NA,NA,NA,NA,NA,2013-12-28,-14,56,YEARS,18-64,M,WHITE,White,HISPANIC OR LATINO,Y,Xanomeline High Dose,Xan_Hi,Xanomeline High Dose,Xan_Hi,Xanomeline High Dose,Xanomeline High Dose,2014-01-11,2014-01-11T00:00:00Z,H,2014-07-10,2014-07-10T23:59:59Z,H,COMPLETED,2014-07-11,NA,2014-01-11,2014-07-11,181,NA,NA,NA,NA,2,SKIN ODOUR ABNORMAL,SKIN ODOUR ABNORMAL,SKIN AND SUBCUTANEOUS TISSUE DISORDERS,NA,SKIN ODOR ABNORMAL,NA,NA,HLT_0510,NA,HLGT_0184,NA,SKIN AND SUBCUTANEOUS TISSUE DISORDERS,NA,2014-01-12,2014-01-12,2014-01-12T00:00:00Z,NA,H,NA,NA,NA,NA,NA,2,2,NA,NA,NA,NA,Y,NA,N,N,N,N,N,N,MILD,MILD,1,REMOTE,REMOTE,NA,E15,NOT RECOVERED/NOT RESOLVED,N,N,2014-01-25,2014-01-12T00:00:00Z,54,mg
CDISCPILOT01,01-701-1239,1239,701,USA,AE,2014-01-11,2014-07-11,2014-01-11,2014-07-10,2014-07-11T15:40,NA,NA,NA,NA,NA,NA,NA,NA,NA,NA,NA,NA,2013-12-28,-14,56,YEARS,18-64,M,WHITE,White,HISPANIC OR LATINO,Y,Xanomeline High Dose,Xan_Hi,Xanomeline High Dose,Xan_Hi,Xanomeline High Dose,Xanomeline High Dose,2014-01-11,2014-01-11T00:00:00Z,H,2014-07-10,2014-07-10T23:59:59Z,H,COMPLETED,2014-07-11,NA,2014-01-11,2014-07-11,181,NA,NA,NA,NA,3,PRURITUS,PRURITUS,SKIN AND SUBCUTANEOUS TISSUE DISORDERS,NA,ITCHING,NA,NA,HLT_0778,NA,HLGT_0695,NA,SKIN AND SUBCUTANEOUS TISSUE DISORDERS,NA,2014-01-13,2014-01-13,2014-01-13T00:00:00Z,NA,H,NA,NA,NA,NA,NA,3,3,NA,NA,NA,NA,Y,NA,N,N,N,N,N,N,MILD,MILD,1,POSSIBLE,POSSIBLE,NA,E12,NOT RECOVERED/NOT RESOLVED,N,N,2014-01-25,2014-01-13T00:00:00Z,54,mg
CDISCPILOT01,01-701-1239,1239,701,USA,AE,2014-01-11,2014-07-11,2014-01-11,2014-07-10,2014-07-11T15:40,NA,NA,NA,NA,NA,NA,NA,NA,NA,NA,NA,NA,2013-12-28,-14,56,YEARS,18-64,M,WHITE,White,HISPANIC OR LATINO,Y,Xanomeline High Dose,Xan_Hi,Xanomeline High Dose,Xan_Hi,Xanomeline High Dose,Xanomeline High Dose,2014-01-11,2014-01-11T00:00:00Z,H,2014-07-10,2014-07-10T23:59:59Z,H,COMPLETED,2014-07-11,NA,2014-01-11,2014-07-11,181,NA,NA,NA,NA,4,APPLICATION SITE IRRITATION,APPLICATION SITE IRRITATION,GENERAL DISORDERS AND ADMINISTRATION SITE CONDITIONS,NA,APPLICATION SITE IRRITATION,NA,NA,HLT_0061,NA,HLGT_0346,NA,GENERAL DISORDERS AND ADMINISTRATION SITE CONDITIONS,NA,2014-01-20,2014-01-20,2014-01-20T00:00:00Z,NA,H,2014-02-08,2014-02-08,2014-02-08T23:59:59Z,NA,H,10,10,29,29,20,days,Y,NA,N,N,N,N,N,N,MILD,MILD,1,PROBABLE,PROBABLE,NA,E13,NOT RECOVERED/NOT RESOLVED,N,N,2014-01-25,2014-01-20T00:00:00Z,54,mg
CDISCPILOT01,01-701-1239,1239,701,USA,AE,2014-01-11,2014-07-11,2014-01-11,2014-07-10,2014-07-11T15:40,NA,NA,NA,NA,NA,NA,NA,NA,NA,NA,NA,NA,2013-12-28,-14,56,YEARS,18-64,M,WHITE,White,HISPANIC OR LATINO,Y,Xanomeline High Dose,Xan_Hi,Xanomeline High Dose,Xan_Hi,Xanomeline High Dose,Xanomeline High Dose,2014-01-11,2014-01-11T00:00:00Z,H,2014-07-10,2014-07-10T23:59:59Z,H,COMPLETED,2014-07-11,NA,2014-01-11,2014-07-11,181,NA,NA,NA,NA,5,APPLICATION SITE IRRITATION,APPLICATION SITE IRRITATION,GENERAL DISORDERS AND ADMINISTRATION SITE CONDITIONS,NA,APPLICATION SITE IRRITATION,NA,NA,HLT_0061,NA,HLGT_0346,NA,GENERAL DISORDERS AND ADMINISTRATION SITE CONDITIONS,NA,2014-01-20,2014-01-20,2014-01-20T00:00:00Z,NA,H,2014-02-08,2014-02-08,2014-02-08T23:59:59Z,NA,H,10,10,29,29,20,days,Y,NA,N,N,N,N,N,N,MILD,MILD,1,PROBABLE,PROBABLE,NA,E13,RECOVERED/RESOLVED,N,N,2014-02-10,2014-01-20T00:00:00Z,54,mg
CDISCPILOT01,01-701-1239,1239,701,USA,AE,2014-01-11,2014-07-11,2014-01-11,2014-07-10,2014-07-11T15:40,NA,NA,NA,NA,NA,NA,NA,NA,NA,NA,NA,NA,2013-12-28,-14,56,YEARS,18-64,M,WHITE,White,HISPANIC OR LATINO,Y,Xanomeline High Dose,Xan_Hi,Xanomeline High Dose,Xan_Hi,Xanomeline High Dose,Xanomeline High Dose,2014-01-11,2014-01-11T00:00:00Z,H,2014-07-10,2014-07-10T23:59:59Z,H,COMPLETED,2014-07-11,NA,2014-01-11,2014-07-11,181,NA,NA,NA,NA,7,UPPER RESPIRATORY TRACT INFECTION,UPPER RESPIRATORY TRACT INFECTION,INFECTIONS AND INFESTATIONS,NA,UPPER RESPIRATORY INFECTION,NA,NA,HLT_0520,NA,HLGT_0489,NA,INFECTIONS AND INFESTATIONS,NA,2014-02-20,2014-02-20,2014-02-20T00:00:00Z,NA,H,2014-03-12,2014-03-12,2014-03-12T23:59:59Z,NA,H,41,41,61,61,21,days,Y,NA,N,N,N,N,N,N,MILD,MILD,1,NONE,NONE,NA,E14,NOT RECOVERED/NOT RESOLVED,N,N,2014-03-06,2014-01-25T00:00:00Z,NA,NA
CDISCPILOT01,01-701-1239,1239,701,USA,AE,2014-01-11,2014-07-11,2014-01-11,2014-07-10,2014-07-11T15:40,NA,NA,NA,NA,NA,NA,NA,NA,NA,NA,NA,NA,2013-12-28,-14,56,YEARS,18-64,M,WHITE,White,HISPANIC OR LATINO,Y,Xanomeline High Dose,Xan_Hi,Xanomeline High Dose,Xan_Hi,Xanomeline High Dose,Xanomeline High Dose,2014-01-11,2014-01-11T00:00:00Z,H,2014-07-10,2014-07-10T23:59:59Z,H,COMPLETED,2014-07-11,NA,2014-01-11,2014-07-11,181,NA,NA,NA,NA,8,UPPER RESPIRATORY TRACT INFECTION,UPPER RESPIRATORY TRACT INFECTION,INFECTIONS AND INFESTATIONS,NA,UPPER RESPIRATORY INFECTION,NA,NA,HLT_0520,NA,HLGT_0489,NA,INFECTIONS AND INFESTATIONS,NA,2014-02-20,2014-02-20,2014-02-20T00:00:00Z,NA,H,2014-03-12,2014-03-12,2014-03-12T23:59:59Z,NA,H,41,41,61,61,21,days,Y,NA,N,N,N,N,N,N,MILD,MILD,1,NONE,NONE,NA,E14,RECOVERED/RESOLVED,N,N,2014-04-02,2014-01-25T00:00:00Z,NA,NA
CDISCPILOT01,01-701-1239,1239,701,USA,AE,2014-01-11,2014-07-11,2014-01-11,2014-07-10,2014-07-11T15:40,NA,NA,NA,NA,NA,NA,NA,NA,NA,NA,NA,NA,2013-12-28,-14,56,YEARS,18-64,M,WHITE,White,HISPANIC OR LATINO,Y,Xanomeline High Dose,Xan_Hi,Xanomeline High Dose,Xan_Hi,Xanomeline High Dose,Xanomeline High Dose,2014-01-11,2014-01-11T00:00:00Z,H,2014-07-10,2014-07-10T23:59:59Z,H,COMPLETED,2014-07-11,NA,2014-01-11,2014-07-11,181,NA,NA,NA,NA,9,FATIGUE,FATIGUE,GENERAL DISORDERS AND ADMINISTRATION SITE CONDITIONS,NA,FATIGUE,NA,NA,HLT_0043,NA,HLGT_0181,NA,GENERAL DISORDERS AND ADMINISTRATION SITE CONDITIONS,NA,2014-03,2014-03-01,2014-03-01T00:00:00Z,D,H,NA,NA,NA,NA,NA,50,NA,NA,NA,NA,NA,Y,NA,N,N,N,N,N,N,MILD,MILD,1,REMOTE,REMOTE,NA,E16,NOT RECOVERED/NOT RESOLVED,N,N,2014-04-02,2014-01-25T00:00:00Z,NA,NA
CDISCPILOT01,01-701-1239,1239,701,USA,AE,2014-01-11,2014-07-11,2014-01-11,2014-07-10,2014-07-11T15:40,NA,NA,NA,NA,NA,NA,NA,NA,NA,NA,NA,NA,2013-12-28,-14,56,YEARS,18-64,M,WHITE,White,HISPANIC OR LATINO,Y,Xanomeline High Dose,Xan_Hi,Xanomeline High Dose,Xan_Hi,Xanomeline High Dose,Xanomeline High Dose,2014-01-11,2014-01-11T00:00:00Z,H,2014-07-10,2014-07-10T23:59:59Z,H,COMPLETED,2014-07-11,NA,2014-01-11,2014-07-11,181,NA,NA,NA,NA,10,HORDEOLUM,HORDEOLUM,INFECTIONS AND INFESTATIONS,NA,STYE,NA,NA,HLT_0604,NA,HLGT_0290,NA,INFECTIONS AND INFESTATIONS,NA,2014-04,2014-04-01,2014-04-01T00:00:00Z,D,H,NA,NA,NA,NA,NA,81,NA,NA,NA,NA,NA,Y,NA,N,N,N,N,N,N,MILD,MILD,1,NONE,NONE,NA,E17,NOT RECOVERED/NOT RESOLVED,N,N,2014-05-02,2014-01-25T00:00:00Z,NA,NA
CDISCPILOT01,01-701-1275,1275,701,USA,AE,2014-02-07,2014-06-14,2014-02-07,2014-05-31,2014-06-14T12:35,NA,NA,NA,NA,NA,NA,NA,NA,NA,NA,NA,NA,2014-01-25,-13,61,YEARS,18-64,M,AMERICAN INDIAN OR ALASKA NATIVE,Non-white,NOT HISPANIC OR LATINO,Y,Xanomeline High Dose,Xan_Hi,Xanomeline High Dose,Xan_Hi,Xanomeline High Dose,Xanomeline High Dose,2014-02-07,2014-02-07T00:00:00Z,H,2014-05-31,2014-05-31T23:59:59Z,H,DISCONTINUED,2014-06-14,NA,2014-02-07,2014-06-14,114,NA,NA,NA,NA,1,NAUSEA,NAUSEA,GASTROINTESTINAL DISORDERS,NA,NAUSEA,NA,NA,HLT_0742,NA,HLGT_0326,NA,GASTROINTESTINAL DISORDERS,NA,2014-02-13,2014-02-13,2014-02-13T00:00:00Z,NA,H,2014-06-03,2014-06-03,2014-06-03T23:59:59Z,NA,H,7,7,117,117,111,days,Y,Y,N,N,N,N,N,N,MILD,MILD,1,POSSIBLE,POSSIBLE,NA,E04,NOT RECOVERED/NOT RESOLVED,N,N,2014-02-22,2014-02-13T00:00:00Z,54,mg
CDISCPILOT01,01-701-1275,1275,701,USA,AE,2014-02-07,2014-06-14,2014-02-07,2014-05-31,2014-06-14T12:35,NA,NA,NA,NA,NA,NA,NA,NA,NA,NA,NA,NA,2014-01-25,-13,61,YEARS,18-64,M,AMERICAN INDIAN OR ALASKA NATIVE,Non-white,NOT HISPANIC OR LATINO,Y,Xanomeline High Dose,Xan_Hi,Xanomeline High Dose,Xan_Hi,Xanomeline High Dose,Xanomeline High Dose,2014-02-07,2014-02-07T00:00:00Z,H,2014-05-31,2014-05-31T23:59:59Z,H,DISCONTINUED,2014-06-14,NA,2014-02-07,2014-06-14,114,NA,NA,NA,NA,11,NAUSEA,NAUSEA,GASTROINTESTINAL DISORDERS,NA,NAUSEA,NA,NA,HLT_0742,NA,HLGT_0326,NA,GASTROINTESTINAL DISORDERS,NA,2014-02-13,2014-02-13,2014-02-13T00:00:00Z,NA,H,2014-06-03,2014-06-03,2014-06-03T23:59:59Z,NA,H,7,7,117,117,111,days,Y,NA,N,N,N,N,N,N,MILD,MILD,1,POSSIBLE,POSSIBLE,NA,E04,RECOVERED/RESOLVED,N,N,2014-06-14,2014-02-13T00:00:00Z,54,mg
CDISCPILOT01,01-701-1275,1275,701,USA,AE,2014-02-07,2014-06-14,2014-02-07,2014-05-31,2014-06-14T12:35,NA,NA,NA,NA,NA,NA,NA,NA,NA,NA,NA,NA,2014-01-25,-13,61,YEARS,18-64,M,AMERICAN INDIAN OR ALASKA NATIVE,Non-white,NOT HISPANIC OR LATINO,Y,Xanomeline High Dose,Xan_Hi,Xanomeline High Dose,Xan_Hi,Xanomeline High Dose,Xanomeline High Dose,2014-02-07,2014-02-07T00:00:00Z,H,2014-05-31,2014-05-31T23:59:59Z,H,DISCONTINUED,2014-06-14,NA,2014-02-07,2014-06-14,114,NA,NA,NA,NA,2,VOMITING,VOMITING,GASTROINTESTINAL DISORDERS,NA,VOMITING,NA,NA,HLT_0016,NA,HLGT_0350,NA,GASTROINTESTINAL DISORDERS,NA,2014-02-23,2014-02-23,2014-02-23T00:00:00Z,NA,H,2014-02-23,2014-02-23,2014-02-23T23:59:59Z,NA,H,17,17,17,17,1,days,Y,NA,N,N,N,N,N,N,MILD,MILD,1,POSSIBLE,POSSIBLE,NA,E05,RECOVERED/RESOLVED,N,N,2014-03-07,2014-02-22T00:00:00Z,NA,NA
CDISCPILOT01,01-701-1275,1275,701,USA,AE,2014-02-07,2014-06-14,2014-02-07,2014-05-31,2014-06-14T12:35,NA,NA,NA,NA,NA,NA,NA,NA,NA,NA,NA,NA,2014-01-25,-13,61,YEARS,18-64,M,AMERICAN INDIAN OR ALASKA NATIVE,Non-white,NOT HISPANIC OR LATINO,Y,Xanomeline High Dose,Xan_Hi,Xanomeline High Dose,Xan_Hi,Xanomeline High Dose,Xanomeline High Dose,2014-02-07,2014-02-07T00:00:00Z,H,2014-05-31,2014-05-31T23:59:59Z,H,DISCONTINUED,2014-06-14,NA,2014-02-07,2014-06-14,114,NA,NA,NA,NA,3,ERYTHEMA,ERYTHEMA,SKIN AND SUBCUTANEOUS TISSUE DISORDERS,NA,ERYTHEMA,NA,NA,HLT_0284,NA,HLGT_0192,NA,SKIN AND SUBCUTANEOUS TISSUE DISORDERS,NA,2014-02-24,2014-02-24,2014-02-24T00:00:00Z,NA,H,2014-06-12,2014-06-12,2014-06-12T23:59:59Z,NA,H,18,18,126,126,109,days,Y,NA,N,N,N,N,N,N,MILD,MILD,1,POSSIBLE,POSSIBLE,NA,E06,NOT RECOVERED/NOT RESOLVED,N,N,2014-03-07,2014-02-22T00:00:00Z,NA,NA
CDISCPILOT01,01-701-1275,1275,701,USA,AE,2014-02-07,2014-06-14,2014-02-07,2014-05-31,2014-06-14T12:35,NA,NA,NA,NA,NA,NA,NA,NA,NA,NA,NA,NA,2014-01-25,-13,61,YEARS,18-64,M,AMERICAN INDIAN OR ALASKA NATIVE,Non-white,NOT HISPANIC OR LATINO,Y,Xanomeline High Dose,Xan_Hi,Xanomeline High Dose,Xan_Hi,Xanomeline High Dose,Xanomeline High Dose,2014-02-07,2014-02-07T00:00:00Z,H,2014-05-31,2014-05-31T23:59:59Z,H,DISCONTINUED,2014-06-14,NA,2014-02-07,2014-06-14,114,NA,NA,NA,NA,4,SALIVARY HYPERSECRETION,SALIVARY HYPERSECRETION,GASTROINTESTINAL DISORDERS,NA,HYPERSALIVATION,NA,NA,HLT_0374,NA,HLGT_0488,NA,GASTROINTESTINAL DISORDERS,NA,2014-02-24,2014-02-24,2014-02-24T00:00:00Z,NA,H,2014-06-03,2014-06-03,2014-06-03T23:59:59Z,NA,H,18,18,117,117,100,days,Y,NA,N,N,N,N,N,N,MILD,MILD,1,POSSIBLE,POSSIBLE,NA,E07,NOT RECOVERED/NOT RESOLVED,N,N,2014-03-07,2014-02-22T00:00:00Z,NA,NA
CDISCPILOT01,01-701-1275,1275,701,USA,AE,2014-02-07,2014-06-14,2014-02-07,2014-05-31,2014-06-14T12:35,NA,NA,NA,NA,NA,NA,NA,NA,NA,NA,NA,NA,2014-01-25,-13,61,YEARS,18-64,M,AMERICAN INDIAN OR ALASKA NATIVE,Non-white,NOT HISPANIC OR LATINO,Y,Xanomeline High Dose,Xan_Hi,Xanomeline High Dose,Xan_Hi,Xanomeline High Dose,Xanomeline High Dose,2014-02-07,2014-02-07T00:00:00Z,H,2014-05-31,2014-05-31T23:59:59Z,H,DISCONTINUED,2014-06-14,NA,2014-02-07,2014-06-14,114,NA,NA,NA,NA,5,PAROSMIA,PAROSMIA,NERVOUS SYSTEM DISORDERS,NA,STRANGE SMELL SENSATION,NA,NA,HLT_0258,NA,HLGT_0471,NA,NERVOUS SYSTEM DISORDERS,NA,2014-02-24,2014-02-24,2014-02-24T00:00:00Z,NA,H,2014-06-03,2014-06-03,2014-06-03T23:59:59Z,NA,H,18,18,117,117,100,days,Y,NA,N,N,N,N,N,N,MILD,MILD,1,POSSIBLE,POSSIBLE,NA,E08,NOT RECOVERED/NOT RESOLVED,N,N,2014-03-07,2014-02-22T00:00:00Z,NA,NA
CDISCPILOT01,01-701-1275,1275,701,USA,AE,2014-02-07,2014-06-14,2014-02-07,2014-05-31,2014-06-14T12:35,NA,NA,NA,NA,NA,NA,NA,NA,NA,NA,NA,NA,2014-01-25,-13,61,YEARS,18-64,M,AMERICAN INDIAN OR ALASKA NATIVE,Non-white,NOT HISPANIC OR LATINO,Y,Xanomeline High Dose,Xan_Hi,Xanomeline High Dose,Xan_Hi,Xanomeline High Dose,Xanomeline High Dose,2014-02-07,2014-02-07T00:00:00Z,H,2014-05-31,2014-05-31T23:59:59Z,H,DISCONTINUED,2014-06-14,NA,2014-02-07,2014-06-14,114,NA,NA,NA,NA,6,PRURITUS,PRURITUS,SKIN AND SUBCUTANEOUS TISSUE DISORDERS,NA,ITCHING,NA,NA,HLT_0778,NA,HLGT_0695,NA,SKIN AND SUBCUTANEOUS TISSUE DISORDERS,NA,2014-02-24,2014-02-24,2014-02-24T00:00:00Z,NA,H,2014-06-12,2014-06-12,2014-06-12T23:59:59Z,NA,H,18,18,126,126,109,days,Y,NA,N,N,N,N,N,N,MILD,MILD,1,POSSIBLE,POSSIBLE,NA,E11,NOT RECOVERED/NOT RESOLVED,N,N,2014-03-07,2014-02-22T00:00:00Z,NA,NA
CDISCPILOT01,01-701-1275,1275,701,USA,AE,2014-02-07,2014-06-14,2014-02-07,2014-05-31,2014-06-14T12:35,NA,NA,NA,NA,NA,NA,NA,NA,NA,NA,NA,NA,2014-01-25,-13,61,YEARS,18-64,M,AMERICAN INDIAN OR ALASKA NATIVE,Non-white,NOT HISPANIC OR LATINO,Y,Xanomeline High Dose,Xan_Hi,Xanomeline High Dose,Xan_Hi,Xanomeline High Dose,Xanomeline High Dose,2014-02-07,2014-02-07T00:00:00Z,H,2014-05-31,2014-05-31T23:59:59Z,H,DISCONTINUED,2014-06-14,NA,2014-02-07,2014-06-14,114,NA,NA,NA,NA,12,ERYTHEMA,ERYTHEMA,SKIN AND SUBCUTANEOUS TISSUE DISORDERS,NA,ERYTHEMA,NA,NA,HLT_0284,NA,HLGT_0192,NA,SKIN AND SUBCUTANEOUS TISSUE DISORDERS,NA,2014-02-24,2014-02-24,2014-02-24T00:00:00Z,NA,H,2014-06-12,2014-06-12,2014-06-12T23:59:59Z,NA,H,18,18,126,126,109,days,Y,NA,N,N,N,N,N,N,MILD,MILD,1,POSSIBLE,POSSIBLE,NA,E06,RECOVERED/RESOLVED,N,N,2014-06-14,2014-02-22T00:00:00Z,NA,NA
CDISCPILOT01,01-701-1275,1275,701,USA,AE,2014-02-07,2014-06-14,2014-02-07,2014-05-31,2014-06-14T12:35,NA,NA,NA,NA,NA,NA,NA,NA,NA,NA,NA,NA,2014-01-25,-13,61,YEARS,18-64,M,AMERICAN INDIAN OR ALASKA NATIVE,Non-white,NOT HISPANIC OR LATINO,Y,Xanomeline High Dose,Xan_Hi,Xanomeline High Dose,Xan_Hi,Xanomeline High Dose,Xanomeline High Dose,2014-02-07,2014-02-07T00:00:00Z,H,2014-05-31,2014-05-31T23:59:59Z,H,DISCONTINUED,2014-06-14,NA,2014-02-07,2014-06-14,114,NA,NA,NA,NA,13,SALIVARY HYPERSECRETION,SALIVARY HYPERSECRETION,GASTROINTESTINAL DISORDERS,NA,HYPERSALIVATION,NA,NA,HLT_0374,NA,HLGT_0488,NA,GASTROINTESTINAL DISORDERS,NA,2014-02-24,2014-02-24,2014-02-24T00:00:00Z,NA,H,2014-06-03,2014-06-03,2014-06-03T23:59:59Z,NA,H,18,18,117,117,100,days,Y,NA,N,N,N,N,N,N,MILD,MILD,1,POSSIBLE,POSSIBLE,NA,E07,RECOVERED/RESOLVED,N,N,2014-06-14,2014-02-22T00:00:00Z,NA,NA
CDISCPILOT01,01-701-1275,1275,701,USA,AE,2014-02-07,2014-06-14,2014-02-07,2014-05-31,2014-06-14T12:35,NA,NA,NA,NA,NA,NA,NA,NA,NA,NA,NA,NA,2014-01-25,-13,61,YEARS,18-64,M,AMERICAN INDIAN OR ALASKA NATIVE,Non-white,NOT HISPANIC OR LATINO,Y,Xanomeline High Dose,Xan_Hi,Xanomeline High Dose,Xan_Hi,Xanomeline High Dose,Xanomeline High Dose,2014-02-07,2014-02-07T00:00:00Z,H,2014-05-31,2014-05-31T23:59:59Z,H,DISCONTINUED,2014-06-14,NA,2014-02-07,2014-06-14,114,NA,NA,NA,NA,14,PAROSMIA,PAROSMIA,NERVOUS SYSTEM DISORDERS,NA,STRANGE SMELL SENSATION,NA,NA,HLT_0258,NA,HLGT_0471,NA,NERVOUS SYSTEM DISORDERS,NA,2014-02-24,2014-02-24,2014-02-24T00:00:00Z,NA,H,2014-06-03,2014-06-03,2014-06-03T23:59:59Z,NA,H,18,18,117,117,100,days,Y,NA,N,N,N,N,N,N,MILD,MILD,1,POSSIBLE,POSSIBLE,NA,E08,RECOVERED/RESOLVED,N,N,2014-06-14,2014-02-22T00:00:00Z,NA,NA
CDISCPILOT01,01-701-1275,1275,701,USA,AE,2014-02-07,2014-06-14,2014-02-07,2014-05-31,2014-06-14T12:35,NA,NA,NA,NA,NA,NA,NA,NA,NA,NA,NA,NA,2014-01-25,-13,61,YEARS,18-64,M,AMERICAN INDIAN OR ALASKA NATIVE,Non-white,NOT HISPANIC OR LATINO,Y,Xanomeline High Dose,Xan_Hi,Xanomeline High Dose,Xan_Hi,Xanomeline High Dose,Xanomeline High Dose,2014-02-07,2014-02-07T00:00:00Z,H,2014-05-31,2014-05-31T23:59:59Z,H,DISCONTINUED,2014-06-14,NA,2014-02-07,2014-06-14,114,NA,NA,NA,NA,15,PRURITUS,PRURITUS,SKIN AND SUBCUTANEOUS TISSUE DISORDERS,NA,ITCHING,NA,NA,HLT_0778,NA,HLGT_0695,NA,SKIN AND SUBCUTANEOUS TISSUE DISORDERS,NA,2014-02-24,2014-02-24,2014-02-24T00:00:00Z,NA,H,2014-06-12,2014-06-12,2014-06-12T23:59:59Z,NA,H,18,18,126,126,109,days,Y,NA,N,N,N,N,N,N,MILD,MILD,1,POSSIBLE,POSSIBLE,NA,E11,RECOVERED/RESOLVED,N,N,2014-06-14,2014-02-22T00:00:00Z,NA,NA
CDISCPILOT01,01-701-1275,1275,701,USA,AE,2014-02-07,2014-06-14,2014-02-07,2014-05-31,2014-06-14T12:35,NA,NA,NA,NA,NA,NA,NA,NA,NA,NA,NA,NA,2014-01-25,-13,61,YEARS,18-64,M,AMERICAN INDIAN OR ALASKA NATIVE,Non-white,NOT HISPANIC OR LATINO,Y,Xanomeline High Dose,Xan_Hi,Xanomeline High Dose,Xan_Hi,Xanomeline High Dose,Xanomeline High Dose,2014-02-07,2014-02-07T00:00:00Z,H,2014-05-31,2014-05-31T23:59:59Z,H,DISCONTINUED,2014-06-14,NA,2014-02-07,2014-06-14,114,NA,NA,NA,NA,7,COUGH,COUGH,"RESPIRATORY, THORACIC AND MEDIASTINAL DISORDERS",NA,COUGH,NA,NA,HLT_0701,NA,HLGT_0280,NA,"RESPIRATORY, THORACIC AND MEDIASTINAL DISORDERS",NA,2014-03-12,2014-03-12,2014-03-12T00:00:00Z,NA,H,2014-03-27,2014-03-27,2014-03-27T23:59:59Z,NA,H,34,34,49,49,16,days,Y,NA,N,N,N,N,N,N,MILD,MILD,1,NONE,NONE,NA,E09,NOT RECOVERED/NOT RESOLVED,N,N,2014-03-22,2014-02-22T00:00:00Z,NA,NA
CDISCPILOT01,01-701-1275,1275,701,USA,AE,2014-02-07,2014-06-14,2014-02-07,2014-05-31,2014-06-14T12:35,NA,NA,NA,NA,NA,NA,NA,NA,NA,NA,NA,NA,2014-01-25,-13,61,YEARS,18-64,M,AMERICAN INDIAN OR ALASKA NATIVE,Non-white,NOT HISPANIC OR LATINO,Y,Xanomeline High Dose,Xan_Hi,Xanomeline High Dose,Xan_Hi,Xanomeline High Dose,Xanomeline High Dose,2014-02-07,2014-02-07T00:00:00Z,H,2014-05-31,2014-05-31T23:59:59Z,H,DISCONTINUED,2014-06-14,NA,2014-02-07,2014-06-14,114,NA,NA,NA,NA,8,NASAL CONGESTION,NASAL CONGESTION,"RESPIRATORY, THORACIC AND MEDIASTINAL DISORDERS",NA,NASAL CONGESTION,NA,NA,HLT_0118,NA,HLGT_0549,NA,"RESPIRATORY, THORACIC AND MEDIASTINAL DISORDERS",NA,2014-03-12,2014-03-12,2014-03-12T00:00:00Z,NA,H,2014-03-27,2014-03-27,2014-03-27T23:59:59Z,NA,H,34,34,49,49,16,days,Y,NA,N,N,N,N,N,N,MILD,MILD,1,NONE,NONE,NA,E10,NOT RECOVERED/NOT RESOLVED,N,N,2014-03-22,2014-02-22T00:00:00Z,NA,NA
CDISCPILOT01,01-701-1275,1275,701,USA,AE,2014-02-07,2014-06-14,2014-02-07,2014-05-31,2014-06-14T12:35,NA,NA,NA,NA,NA,NA,NA,NA,NA,NA,NA,NA,2014-01-25,-13,61,YEARS,18-64,M,AMERICAN INDIAN OR ALASKA NATIVE,Non-white,NOT HISPANIC OR LATINO,Y,Xanomeline High Dose,Xan_Hi,Xanomeline High Dose,Xan_Hi,Xanomeline High Dose,Xanomeline High Dose,2014-02-07,2014-02-07T00:00:00Z,H,2014-05-31,2014-05-31T23:59:59Z,H,DISCONTINUED,2014-06-14,NA,2014-02-07,2014-06-14,114,NA,NA,NA,NA,9,COUGH,COUGH,"RESPIRATORY, THORACIC AND MEDIASTINAL DISORDERS",NA,COUGH,NA,NA,HLT_0701,NA,HLGT_0280,NA,"RESPIRATORY, THORACIC AND MEDIASTINAL DISORDERS",NA,2014-03-12,2014-03-12,2014-03-12T00:00:00Z,NA,H,2014-03-27,2014-03-27,2014-03-27T23:59:59Z,NA,H,34,34,49,49,16,days,Y,NA,N,N,N,N,N,N,MILD,MILD,1,NONE,NONE,NA,E09,RECOVERED/RESOLVED,N,N,2014-04-05,2014-02-22T00:00:00Z,NA,NA
CDISCPILOT01,01-701-1275,1275,701,USA,AE,2014-02-07,2014-06-14,2014-02-07,2014-05-31,2014-06-14T12:35,NA,NA,NA,NA,NA,NA,NA,NA,NA,NA,NA,NA,2014-01-25,-13,61,YEARS,18-64,M,AMERICAN INDIAN OR ALASKA NATIVE,Non-white,NOT HISPANIC OR LATINO,Y,Xanomeline High Dose,Xan_Hi,Xanomeline High Dose,Xan_Hi,Xanomeline High Dose,Xanomeline High Dose,2014-02-07,2014-02-07T00:00:00Z,H,2014-05-31,2014-05-31T23:59:59Z,H,DISCONTINUED,2014-06-14,NA,2014-02-07,2014-06-14,114,NA,NA,NA,NA,10,NASAL CONGESTION,NASAL CONGESTION,"RESPIRATORY, THORACIC AND MEDIASTINAL DISORDERS",NA,NASAL CONGESTION,NA,NA,HLT_0118,NA,HLGT_0549,NA,"RESPIRATORY, THORACIC AND MEDIASTINAL DISORDERS",NA,2014-03-12,2014-03-12,2014-03-12T00:00:00Z,NA,H,2014-03-27,2014-03-27,2014-03-27T23:59:59Z,NA,H,34,34,49,49,16,days,Y,NA,N,N,N,N,N,N,MILD,MILD,1,NONE,NONE,NA,E10,RECOVERED/RESOLVED,N,N,2014-04-05,2014-02-22T00:00:00Z,NA,NA
CDISCPILOT01,01-701-1287,1287,701,USA,AE,2014-01-25,2014-07-26,2014-01-25,2014-07-26,2014-07-26T13:15,NA,NA,NA,NA,NA,NA,NA,NA,NA,NA,NA,NA,2014-01-17,-8,56,YEARS,18-64,F,WHITE,White,HISPANIC OR LATINO,Y,Xanomeline High Dose,Xan_Hi,Xanomeline High Dose,Xan_Hi,Xanomeline High Dose,Xanomeline High Dose,2014-01-25,2014-01-25T00:00:00Z,H,2014-07-26,2014-07-26T23:59:59Z,H,COMPLETED,2014-07-26,NA,2014-01-25,2014-07-26,183,NA,NA,NA,NA,1,SALIVARY HYPERSECRETION,SALIVARY HYPERSECRETION,GASTROINTESTINAL DISORDERS,NA,INCREASED SALIVATION,NA,NA,HLT_0374,NA,HLGT_0488,NA,GASTROINTESTINAL DISORDERS,NA,2014-01-26,2014-01-26,2014-01-26T00:00:00Z,NA,H,NA,NA,NA,NA,NA,2,2,NA,NA,NA,NA,Y,Y,N,N,N,N,N,N,MILD,MILD,1,NONE,NONE,NA,E02,NOT RECOVERED/NOT RESOLVED,N,N,2014-02-11,2014-01-26T00:00:00Z,54,mg
CDISCPILOT01,01-701-1287,1287,701,USA,AE,2014-01-25,2014-07-26,2014-01-25,2014-07-26,2014-07-26T13:15,NA,NA,NA,NA,NA,NA,NA,NA,NA,NA,NA,NA,2014-01-17,-8,56,YEARS,18-64,F,WHITE,White,HISPANIC OR LATINO,Y,Xanomeline High Dose,Xan_Hi,Xanomeline High Dose,Xan_Hi,Xanomeline High Dose,Xanomeline High Dose,2014-01-25,2014-01-25T00:00:00Z,H,2014-07-26,2014-07-26T23:59:59Z,H,COMPLETED,2014-07-26,NA,2014-01-25,2014-07-26,183,NA,NA,NA,NA,2,APPLICATION SITE PRURITUS,APPLICATION SITE PRURITUS,GENERAL DISORDERS AND ADMINISTRATION SITE CONDITIONS,NA,APPLICATION SITE ITCHING,NA,NA,HLT_0317,NA,HLGT_0338,NA,GENERAL DISORDERS AND ADMINISTRATION SITE CONDITIONS,NA,2014-02-22,2014-02-22,2014-02-22T00:00:00Z,NA,H,NA,NA,NA,NA,NA,29,29,NA,NA,NA,NA,Y,NA,N,N,N,N,N,N,MILD,MILD,1,POSSIBLE,POSSIBLE,NA,E03,NOT RECOVERED/NOT RESOLVED,N,N,2014-03-06,2014-02-11T00:00:00Z,NA,NA
CDISCPILOT01,01-701-1287,1287,701,USA,AE,2014-01-25,2014-07-26,2014-01-25,2014-07-26,2014-07-26T13:15,NA,NA,NA,NA,NA,NA,NA,NA,NA,NA,NA,NA,2014-01-17,-8,56,YEARS,18-64,F,WHITE,White,HISPANIC OR LATINO,Y,Xanomeline High Dose,Xan_Hi,Xanomeline High Dose,Xan_Hi,Xanomeline High Dose,Xanomeline High Dose,2014-01-25,2014-01-25T00:00:00Z,H,2014-07-26,2014-07-26T23:59:59Z,H,COMPLETED,2014-07-26,NA,2014-01-25,2014-07-26,183,NA,NA,NA,NA,3,APPLICATION SITE ERYTHEMA,APPLICATION SITE ERYTHEMA,GENERAL DISORDERS AND ADMINISTRATION SITE CONDITIONS,NA,APPLICATION SITE REDNESS,NA,NA,HLT_0617,NA,HLGT_0152,NA,GENERAL DISORDERS AND ADMINISTRATION SITE CONDITIONS,NA,2014-03-09,2014-03-09,2014-03-09T00:00:00Z,NA,H,NA,NA,NA,NA,NA,44,44,NA,NA,NA,NA,Y,NA,N,N,N,N,N,N,MILD,MILD,1,PROBABLE,PROBABLE,NA,E04,NOT RECOVERED/NOT RESOLVED,N,N,2014-03-21,2014-02-11T00:00:00Z,NA,NA
CDISCPILOT01,01-701-1287,1287,701,USA,AE,2014-01-25,2014-07-26,2014-01-25,2014-07-26,2014-07-26T13:15,NA,NA,NA,NA,NA,NA,NA,NA,NA,NA,NA,NA,2014-01-17,-8,56,YEARS,18-64,F,WHITE,White,HISPANIC OR LATINO,Y,Xanomeline High Dose,Xan_Hi,Xanomeline High Dose,Xan_Hi,Xanomeline High Dose,Xanomeline High Dose,2014-01-25,2014-01-25T00:00:00Z,H,2014-07-26,2014-07-26T23:59:59Z,H,COMPLETED,2014-07-26,NA,2014-01-25,2014-07-26,183,NA,NA,NA,NA,4,RHINORRHOEA,RHINORRHOEA,"RESPIRATORY, THORACIC AND MEDIASTINAL DISORDERS",NA,RUNNY NOSE,NA,NA,HLT_0635,NA,HLGT_0460,NA,"RESPIRATORY, THORACIC AND MEDIASTINAL DISORDERS",NA,2014-07-09,2014-07-09,2014-07-09T00:00:00Z,NA,H,2014-07-12,2014-07-12,2014-07-12T23:59:59Z,NA,H,166,166,169,169,4,days,Y,NA,N,N,N,N,N,N,MILD,MILD,1,NONE,NONE,NA,E05,NOT RECOVERED/NOT RESOLVED,N,N,2014-07-12,2014-02-11T00:00:00Z,NA,NA
CDISCPILOT01,01-701-1287,1287,701,USA,AE,2014-01-25,2014-07-26,2014-01-25,2014-07-26,2014-07-26T13:15,NA,NA,NA,NA,NA,NA,NA,NA,NA,NA,NA,NA,2014-01-17,-8,56,YEARS,18-64,F,WHITE,White,HISPANIC OR LATINO,Y,Xanomeline High Dose,Xan_Hi,Xanomeline High Dose,Xan_Hi,Xanomeline High Dose,Xanomeline High Dose,2014-01-25,2014-01-25T00:00:00Z,H,2014-07-26,2014-07-26T23:59:59Z,H,COMPLETED,2014-07-26,NA,2014-01-25,2014-07-26,183,NA,NA,NA,NA,5,RHINORRHOEA,RHINORRHOEA,"RESPIRATORY, THORACIC AND MEDIASTINAL DISORDERS",NA,RUNNY NOSE,NA,NA,HLT_0635,NA,HLGT_0460,NA,"RESPIRATORY, THORACIC AND MEDIASTINAL DISORDERS",NA,2014-07-09,2014-07-09,2014-07-09T00:00:00Z,NA,H,2014-07-12,2014-07-12,2014-07-12T23:59:59Z,NA,H,166,166,169,169,4,days,Y,NA,N,N,N,N,N,N,MILD,MILD,1,NONE,NONE,NA,E05,RECOVERED/RESOLVED,N,N,2014-07-26,2014-02-11T00:00:00Z,NA,NA
CDISCPILOT01,01-701-1294,1294,701,USA,AE,2013-03-24,2013-06-14,2013-03-24,2013-06-14,2013-10-08,NA,2013-10-08,NA,NA,NA,NA,NA,NA,NA,NA,NA,NA,2013-03-17,-7,67,YEARS,>64,M,WHITE,White,NOT HISPANIC OR LATINO,Y,Xanomeline Low Dose,Xan_Lo,Xanomeline Low Dose,Xan_Lo,Xanomeline Low Dose,Xanomeline Low Dose,2013-03-24,2013-03-24T00:00:00Z,H,2013-06-14,2013-06-14T23:59:59Z,H,DISCONTINUED,2013-06-14,NA,2013-03-24,2013-06-14,83,NA,NA,NA,NA,4,APPLICATION SITE PRURITUS,APPLICATION SITE PRURITUS,GENERAL DISORDERS AND ADMINISTRATION SITE CONDITIONS,NA,APPLICATION SITE ITCHING,NA,NA,HLT_0317,NA,HLGT_0338,NA,GENERAL DISORDERS AND ADMINISTRATION SITE CONDITIONS,NA,2013-05-19,2013-05-19,2013-05-19T00:00:00Z,NA,H,NA,NA,NA,NA,NA,57,57,NA,NA,NA,NA,Y,Y,N,N,N,N,N,N,MODERATE,MODERATE,2,POSSIBLE,POSSIBLE,NA,E07,NOT RECOVERED/NOT RESOLVED,N,N,2013-06-14,2013-05-19T00:00:00Z,54,mg
CDISCPILOT01,01-701-1294,1294,701,USA,AE,2013-03-24,2013-06-14,2013-03-24,2013-06-14,2013-10-08,NA,2013-10-08,NA,NA,NA,NA,NA,NA,NA,NA,NA,NA,2013-03-17,-7,67,YEARS,>64,M,WHITE,White,NOT HISPANIC OR LATINO,Y,Xanomeline Low Dose,Xan_Lo,Xanomeline Low Dose,Xan_Lo,Xanomeline Low Dose,Xanomeline Low Dose,2013-03-24,2013-03-24T00:00:00Z,H,2013-06-14,2013-06-14T23:59:59Z,H,DISCONTINUED,2013-06-14,NA,2013-03-24,2013-06-14,83,NA,NA,NA,NA,5,APPLICATION SITE ERYTHEMA,APPLICATION SITE ERYTHEMA,GENERAL DISORDERS AND ADMINISTRATION SITE CONDITIONS,NA,APPLICATION SITE REDNESS,NA,NA,HLT_0617,NA,HLGT_0152,NA,GENERAL DISORDERS AND ADMINISTRATION SITE CONDITIONS,NA,2013-05-19,2013-05-19,2013-05-19T00:00:00Z,NA,H,NA,NA,NA,NA,NA,57,57,NA,NA,NA,NA,Y,NA,N,N,N,N,N,N,MODERATE,MODERATE,2,PROBABLE,PROBABLE,NA,E08,NOT RECOVERED/NOT RESOLVED,N,N,2013-06-14,2013-05-19T00:00:00Z,54,mg
CDISCPILOT01,01-701-1294,1294,701,USA,AE,2013-03-24,2013-06-14,2013-03-24,2013-06-14,2013-10-08,NA,2013-10-08,NA,NA,NA,NA,NA,NA,NA,NA,NA,NA,2013-03-17,-7,67,YEARS,>64,M,WHITE,White,NOT HISPANIC OR LATINO,Y,Xanomeline Low Dose,Xan_Lo,Xanomeline Low Dose,Xan_Lo,Xanomeline Low Dose,Xanomeline Low Dose,2013-03-24,2013-03-24T00:00:00Z,H,2013-06-14,2013-06-14T23:59:59Z,H,DISCONTINUED,2013-06-14,NA,2013-03-24,2013-06-14,83,NA,NA,NA,NA,6,RASH ERYTHEMATOUS,RASH ERYTHEMATOUS,SKIN AND SUBCUTANEOUS TISSUE DISORDERS,NA,ERYTHEMATOUS RASH,NA,NA,HLT_0336,NA,HLGT_0701,NA,SKIN AND SUBCUTANEOUS TISSUE DISORDERS,NA,2013-06-10,2013-06-10,2013-06-10T00:00:00Z,NA,H,NA,NA,NA,NA,NA,79,79,NA,NA,NA,NA,Y,NA,N,N,N,N,N,N,MODERATE,MODERATE,2,PROBABLE,PROBABLE,NA,E09,NOT RECOVERED/NOT RESOLVED,N,N,2013-06-14,2013-06-10T00:00:00Z,54,mg
CDISCPILOT01,01-701-1294,1294,701,USA,AE,2013-03-24,2013-06-14,2013-03-24,2013-06-14,2013-10-08,NA,2013-10-08,NA,NA,NA,NA,NA,NA,NA,NA,NA,NA,2013-03-17,-7,67,YEARS,>64,M,WHITE,White,NOT HISPANIC OR LATINO,Y,Xanomeline Low Dose,Xan_Lo,Xanomeline Low Dose,Xan_Lo,Xanomeline Low Dose,Xanomeline Low Dose,2013-03-24,2013-03-24T00:00:00Z,H,2013-06-14,2013-06-14T23:59:59Z,H,DISCONTINUED,2013-06-14,NA,2013-03-24,2013-06-14,83,NA,NA,NA,NA,2,APPLICATION SITE PRURITUS,APPLICATION SITE PRURITUS,GENERAL DISORDERS AND ADMINISTRATION SITE CONDITIONS,NA,APPLICATION SITE ITCHING,NA,NA,HLT_0317,NA,HLGT_0338,NA,GENERAL DISORDERS AND ADMINISTRATION SITE CONDITIONS,NA,2013-05-19,2013-05-19,2013-05-19T00:00:00Z,NA,H,NA,NA,NA,NA,NA,57,57,NA,NA,NA,NA,Y,NA,N,N,N,N,N,N,MILD,MILD,1,POSSIBLE,POSSIBLE,NA,E07,NOT RECOVERED/NOT RESOLVED,N,N,2013-05-22,2013-05-19T00:00:00Z,54,mg
CDISCPILOT01,01-701-1294,1294,701,USA,AE,2013-03-24,2013-06-14,2013-03-24,2013-06-14,2013-10-08,NA,2013-10-08,NA,NA,NA,NA,NA,NA,NA,NA,NA,NA,2013-03-17,-7,67,YEARS,>64,M,WHITE,White,NOT HISPANIC OR LATINO,Y,Xanomeline Low Dose,Xan_Lo,Xanomeline Low Dose,Xan_Lo,Xanomeline Low Dose,Xanomeline Low Dose,2013-03-24,2013-03-24T00:00:00Z,H,2013-06-14,2013-06-14T23:59:59Z,H,DISCONTINUED,2013-06-14,NA,2013-03-24,2013-06-14,83,NA,NA,NA,NA,3,APPLICATION SITE ERYTHEMA,APPLICATION SITE ERYTHEMA,GENERAL DISORDERS AND ADMINISTRATION SITE CONDITIONS,NA,APPLICATION SITE REDNESS,NA,NA,HLT_0617,NA,HLGT_0152,NA,GENERAL DISORDERS AND ADMINISTRATION SITE CONDITIONS,NA,2013-05-19,2013-05-19,2013-05-19T00:00:00Z,NA,H,NA,NA,NA,NA,NA,57,57,NA,NA,NA,NA,Y,NA,N,N,N,N,N,N,MILD,MILD,1,PROBABLE,PROBABLE,NA,E08,NOT RECOVERED/NOT RESOLVED,N,N,2013-05-22,2013-05-19T00:00:00Z,54,mg
CDISCPILOT01,01-701-1302,1302,701,USA,AE,2013-08-29,2013-11-05,2013-08-29,2013-11-05,2014-02-13,NA,2014-02-13,NA,NA,NA,NA,NA,NA,NA,NA,NA,NA,2013-08-20,-9,61,YEARS,18-64,M,WHITE,White,NOT HISPANIC OR LATINO,Y,Xanomeline High Dose,Xan_Hi,Xanomeline High Dose,Xan_Hi,Xanomeline High Dose,Xanomeline High Dose,2013-08-29,2013-08-29T00:00:00Z,H,2013-11-05,2013-11-05T23:59:59Z,H,DISCONTINUED,2013-11-05,NA,2013-08-29,2013-11-05,69,NA,NA,NA,NA,9,DIZZINESS,DIZZINESS,NERVOUS SYSTEM DISORDERS,NA,DIZZY,NA,NA,HLT_0619,NA,HLGT_0751,NA,NERVOUS SYSTEM DISORDERS,NA,2013-09-02,2013-09-02,2013-09-02T00:00:00Z,NA,H,2013-09-03,2013-09-03,2013-09-03T23:59:59Z,NA,H,5,5,6,6,2,days,Y,Y,N,N,N,N,N,N,MODERATE,MODERATE,2,REMOTE,REMOTE,NA,E17,RECOVERED/RESOLVED,N,N,2013-09-15,2013-09-02T00:00:00Z,54,mg
CDISCPILOT01,01-701-1302,1302,701,USA,AE,2013-08-29,2013-11-05,2013-08-29,2013-11-05,2014-02-13,NA,2014-02-13,NA,NA,NA,NA,NA,NA,NA,NA,NA,NA,2013-08-20,-9,61,YEARS,18-64,M,WHITE,White,NOT HISPANIC OR LATINO,Y,Xanomeline High Dose,Xan_Hi,Xanomeline High Dose,Xan_Hi,Xanomeline High Dose,Xanomeline High Dose,2013-08-29,2013-08-29T00:00:00Z,H,2013-11-05,2013-11-05T23:59:59Z,H,DISCONTINUED,2013-11-05,NA,2013-08-29,2013-11-05,69,NA,NA,NA,NA,18,MALAISE,MALAISE,GENERAL DISORDERS AND ADMINISTRATION SITE CONDITIONS,NA,MALAISE,NA,NA,HLT_0456,NA,HLGT_0178,NA,GENERAL DISORDERS AND ADMINISTRATION SITE CONDITIONS,NA,2013-09-02,2013-09-02,2013-09-02T00:00:00Z,NA,H,NA,NA,NA,NA,NA,5,5,NA,NA,NA,NA,Y,NA,N,N,N,N,N,N,MODERATE,MODERATE,2,REMOTE,REMOTE,NA,E16,NOT RECOVERED/NOT RESOLVED,N,N,2013-11-05,2013-09-02T00:00:00Z,54,mg
CDISCPILOT01,01-701-1302,1302,701,USA,AE,2013-08-29,2013-11-05,2013-08-29,2013-11-05,2014-02-13,NA,2014-02-13,NA,NA,NA,NA,NA,NA,NA,NA,NA,NA,2013-08-20,-9,61,YEARS,18-64,M,WHITE,White,NOT HISPANIC OR LATINO,Y,Xanomeline High Dose,Xan_Hi,Xanomeline High Dose,Xan_Hi,Xanomeline High Dose,Xanomeline High Dose,2013-08-29,2013-08-29T00:00:00Z,H,2013-11-05,2013-11-05T23:59:59Z,H,DISCONTINUED,2013-11-05,NA,2013-08-29,2013-11-05,69,NA,NA,NA,NA,1,APPLICATION SITE PERSPIRATION,APPLICATION SITE PERSPIRATION,GENERAL DISORDERS AND ADMINISTRATION SITE CONDITIONS,NA,APPLICATION SITE PERSPIRATION,NA,NA,HLT_0283,NA,HLGT_0403,NA,GENERAL DISORDERS AND ADMINISTRATION SITE CONDITIONS,NA,2013-08-30,2013-08-30,2013-08-30T00:00:00Z,NA,H,NA,NA,NA,NA,NA,2,2,NA,NA,NA,NA,Y,NA,N,N,N,N,N,N,MILD,MILD,1,POSSIBLE,POSSIBLE,NA,E21,NOT RECOVERED/NOT RESOLVED,N,N,2013-09-15,2013-08-30T00:00:00Z,54,mg
CDISCPILOT01,01-701-1302,1302,701,USA,AE,2013-08-29,2013-11-05,2013-08-29,2013-11-05,2014-02-13,NA,2014-02-13,NA,NA,NA,NA,NA,NA,NA,NA,NA,NA,2013-08-20,-9,61,YEARS,18-64,M,WHITE,White,NOT HISPANIC OR LATINO,Y,Xanomeline High Dose,Xan_Hi,Xanomeline High Dose,Xan_Hi,Xanomeline High Dose,Xanomeline High Dose,2013-08-29,2013-08-29T00:00:00Z,H,2013-11-05,2013-11-05T23:59:59Z,H,DISCONTINUED,2013-11-05,NA,2013-08-29,2013-11-05,69,NA,NA,NA,NA,2,HYPERHIDROSIS,HYPERHIDROSIS,SKIN AND SUBCUTANEOUS TISSUE DISORDERS,NA,PERSPIRATION EXCESSIVE,NA,NA,HLT_0587,NA,HLGT_0005,NA,SKIN AND SUBCUTANEOUS TISSUE DISORDERS,NA,2013-08-30,2013-08-30,2013-08-30T00:00:00Z,NA,H,NA,NA,NA,NA,NA,2,2,NA,NA,NA,NA,Y,NA,N,N,N,N,N,N,MILD,MILD,1,POSSIBLE,POSSIBLE,NA,E24,NOT RECOVERED/NOT RESOLVED,N,N,2013-09-15,2013-08-30T00:00:00Z,54,mg
CDISCPILOT01,01-701-1302,1302,701,USA,AE,2013-08-29,2013-11-05,2013-08-29,2013-11-05,2014-02-13,NA,2014-02-13,NA,NA,NA,NA,NA,NA,NA,NA,NA,NA,2013-08-20,-9,61,YEARS,18-64,M,WHITE,White,NOT HISPANIC OR LATINO,Y,Xanomeline High Dose,Xan_Hi,Xanomeline High Dose,Xan_Hi,Xanomeline High Dose,Xanomeline High Dose,2013-08-29,2013-08-29T00:00:00Z,H,2013-11-05,2013-11-05T23:59:59Z,H,DISCONTINUED,2013-11-05,NA,2013-08-29,2013-11-05,69,NA,NA,NA,NA,3,STOMACH DISCOMFORT,STOMACH DISCOMFORT,GASTROINTESTINAL DISORDERS,NA,STOMACH UPSET,NA,NA,HLT_0065,NA,HLGT_0183,NA,GASTROINTESTINAL DISORDERS,NA,2013-08-30,2013-08-30,2013-08-30T00:00:00Z,NA,H,NA,NA,NA,NA,NA,2,2,NA,NA,NA,NA,Y,NA,N,N,N,N,N,N,MILD,MILD,1,POSSIBLE,POSSIBLE,NA,E26,NOT RECOVERED/NOT RESOLVED,N,N,2013-09-15,2013-08-30T00:00:00Z,54,mg
CDISCPILOT01,01-701-1302,1302,701,USA,AE,2013-08-29,2013-11-05,2013-08-29,2013-11-05,2014-02-13,NA,2014-02-13,NA,NA,NA,NA,NA,NA,NA,NA,NA,NA,2013-08-20,-9,61,YEARS,18-64,M,WHITE,White,NOT HISPANIC OR LATINO,Y,Xanomeline High Dose,Xan_Hi,Xanomeline High Dose,Xan_Hi,Xanomeline High Dose,Xanomeline High Dose,2013-08-29,2013-08-29T00:00:00Z,H,2013-11-05,2013-11-05T23:59:59Z,H,DISCONTINUED,2013-11-05,NA,2013-08-29,2013-11-05,69,NA,NA,NA,NA,4,PAIN,PAIN,GENERAL DISORDERS AND ADMINISTRATION SITE CONDITIONS,NA,STINGING,NA,NA,HLT_0314,NA,HLGT_0478,NA,GENERAL DISORDERS AND ADMINISTRATION SITE CONDITIONS,NA,2013-08-31,2013-08-31,2013-08-31T00:00:00Z,NA,H,NA,NA,NA,NA,NA,3,3,NA,NA,NA,NA,Y,NA,N,N,N,N,N,N,MILD,MILD,1,POSSIBLE,POSSIBLE,NA,E22,NOT RECOVERED/NOT RESOLVED,N,N,2013-09-15,2013-08-31T00:00:00Z,54,mg
CDISCPILOT01,01-701-1302,1302,701,USA,AE,2013-08-29,2013-11-05,2013-08-29,2013-11-05,2014-02-13,NA,2014-02-13,NA,NA,NA,NA,NA,NA,NA,NA,NA,NA,2013-08-20,-9,61,YEARS,18-64,M,WHITE,White,NOT HISPANIC OR LATINO,Y,Xanomeline High Dose,Xan_Hi,Xanomeline High Dose,Xan_Hi,Xanomeline High Dose,Xanomeline High Dose,2013-08-29,2013-08-29T00:00:00Z,H,2013-11-05,2013-11-05T23:59:59Z,H,DISCONTINUED,2013-11-05,NA,2013-08-29,2013-11-05,69,NA,NA,NA,NA,5,NASAL CONGESTION,NASAL CONGESTION,"RESPIRATORY, THORACIC AND MEDIASTINAL DISORDERS",NA,NASAL CONGESTION,NA,NA,HLT_0118,NA,HLGT_0549,NA,"RESPIRATORY, THORACIC AND MEDIASTINAL DISORDERS",NA,2013-09-01,2013-09-01,2013-09-01T00:00:00Z,NA,H,NA,NA,NA,NA,NA,4,4,NA,NA,NA,NA,Y,NA,N,N,N,N,N,N,MILD,MILD,1,NONE,NONE,NA,E13,NOT RECOVERED/NOT RESOLVED,N,N,2013-09-15,2013-09-01T00:00:00Z,54,mg
CDISCPILOT01,01-701-1302,1302,701,USA,AE,2013-08-29,2013-11-05,2013-08-29,2013-11-05,2014-02-13,NA,2014-02-13,NA,NA,NA,NA,NA,NA,NA,NA,NA,NA,2013-08-20,-9,61,YEARS,18-64,M,WHITE,White,NOT HISPANIC OR LATINO,Y,Xanomeline High Dose,Xan_Hi,Xanomeline High Dose,Xan_Hi,Xanomeline High Dose,Xanomeline High Dose,2013-08-29,2013-08-29T00:00:00Z,H,2013-11-05,2013-11-05T23:59:59Z,H,DISCONTINUED,2013-11-05,NA,2013-08-29,2013-11-05,69,NA,NA,NA,NA,6,PHARYNGOLARYNGEAL PAIN,PHARYNGOLARYNGEAL PAIN,"RESPIRATORY, THORACIC AND MEDIASTINAL DISORDERS",NA,SORE THROAT,NA,NA,HLT_0130,NA,HLGT_0402,NA,"RESPIRATORY, THORACIC AND MEDIASTINAL DISORDERS",NA,2013-09-02,2013-09-02,2013-09-02T00:00:00Z,NA,H,NA,NA,NA,NA,NA,5,5,NA,NA,NA,NA,Y,NA,N,N,N,N,N,N,MILD,MILD,1,NONE,NONE,NA,E14,NOT RECOVERED/NOT RESOLVED,N,N,2013-09-15,2013-09-02T00:00:00Z,54,mg
CDISCPILOT01,01-701-1302,1302,701,USA,AE,2013-08-29,2013-11-05,2013-08-29,2013-11-05,2014-02-13,NA,2014-02-13,NA,NA,NA,NA,NA,NA,NA,NA,NA,NA,2013-08-20,-9,61,YEARS,18-64,M,WHITE,White,NOT HISPANIC OR LATINO,Y,Xanomeline High Dose,Xan_Hi,Xanomeline High Dose,Xan_Hi,Xanomeline High Dose,Xanomeline High Dose,2013-08-29,2013-08-29T00:00:00Z,H,2013-11-05,2013-11-05T23:59:59Z,H,DISCONTINUED,2013-11-05,NA,2013-08-29,2013-11-05,69,NA,NA,NA,NA,7,PRODUCTIVE COUGH,PRODUCTIVE COUGH,"RESPIRATORY, THORACIC AND MEDIASTINAL DISORDERS",NA,PRODUCTIVE COUGH,NA,NA,HLT_0545,NA,HLGT_0681,NA,"RESPIRATORY, THORACIC AND MEDIASTINAL DISORDERS",NA,2013-09-02,2013-09-02,2013-09-02T00:00:00Z,NA,H,NA,NA,NA,NA,NA,5,5,NA,NA,NA,NA,Y,NA,N,N,N,N,N,N,MILD,MILD,1,NONE,NONE,NA,E15,NOT RECOVERED/NOT RESOLVED,N,N,2013-09-15,2013-09-02T00:00:00Z,54,mg
CDISCPILOT01,01-701-1302,1302,701,USA,AE,2013-08-29,2013-11-05,2013-08-29,2013-11-05,2014-02-13,NA,2014-02-13,NA,NA,NA,NA,NA,NA,NA,NA,NA,NA,2013-08-20,-9,61,YEARS,18-64,M,WHITE,White,NOT HISPANIC OR LATINO,Y,Xanomeline High Dose,Xan_Hi,Xanomeline High Dose,Xan_Hi,Xanomeline High Dose,Xanomeline High Dose,2013-08-29,2013-08-29T00:00:00Z,H,2013-11-05,2013-11-05T23:59:59Z,H,DISCONTINUED,2013-11-05,NA,2013-08-29,2013-11-05,69,NA,NA,NA,NA,8,MALAISE,MALAISE,GENERAL DISORDERS AND ADMINISTRATION SITE CONDITIONS,NA,MALAISE,NA,NA,HLT_0456,NA,HLGT_0178,NA,GENERAL DISORDERS AND ADMINISTRATION SITE CONDITIONS,NA,2013-09-02,2013-09-02,2013-09-02T00:00:00Z,NA,H,NA,NA,NA,NA,NA,5,5,NA,NA,NA,NA,Y,NA,N,N,N,N,N,N,MILD,MILD,1,REMOTE,REMOTE,NA,E16,NOT RECOVERED/NOT RESOLVED,N,N,2013-09-15,2013-09-02T00:00:00Z,54,mg
CDISCPILOT01,01-701-1302,1302,701,USA,AE,2013-08-29,2013-11-05,2013-08-29,2013-11-05,2014-02-13,NA,2014-02-13,NA,NA,NA,NA,NA,NA,NA,NA,NA,NA,2013-08-20,-9,61,YEARS,18-64,M,WHITE,White,NOT HISPANIC OR LATINO,Y,Xanomeline High Dose,Xan_Hi,Xanomeline High Dose,Xan_Hi,Xanomeline High Dose,Xanomeline High Dose,2013-08-29,2013-08-29T00:00:00Z,H,2013-11-05,2013-11-05T23:59:59Z,H,DISCONTINUED,2013-11-05,NA,2013-08-29,2013-11-05,69,NA,NA,NA,NA,10,MYALGIA,MYALGIA,MUSCULOSKELETAL AND CONNECTIVE TISSUE DISORDERS,NA,MYALGIA,NA,NA,HLT_0700,NA,HLGT_0121,NA,MUSCULOSKELETAL AND CONNECTIVE TISSUE DISORDERS,NA,2013-09-02,2013-09-02,2013-09-02T00:00:00Z,NA,H,NA,NA,NA,NA,NA,5,5,NA,NA,NA,NA,Y,NA,N,N,N,N,N,N,MILD,MILD,1,POSSIBLE,POSSIBLE,NA,E18,NOT RECOVERED/NOT RESOLVED,N,N,2013-09-15,2013-09-02T00:00:00Z,54,mg
CDISCPILOT01,01-701-1302,1302,701,USA,AE,2013-08-29,2013-11-05,2013-08-29,2013-11-05,2014-02-13,NA,2014-02-13,NA,NA,NA,NA,NA,NA,NA,NA,NA,NA,2013-08-20,-9,61,YEARS,18-64,M,WHITE,White,NOT HISPANIC OR LATINO,Y,Xanomeline High Dose,Xan_Hi,Xanomeline High Dose,Xan_Hi,Xanomeline High Dose,Xanomeline High Dose,2013-08-29,2013-08-29T00:00:00Z,H,2013-11-05,2013-11-05T23:59:59Z,H,DISCONTINUED,2013-11-05,NA,2013-08-29,2013-11-05,69,NA,NA,NA,NA,11,DIZZINESS,DIZZINESS,NERVOUS SYSTEM DISORDERS,NA,LIGHTHEADEDNESS,NA,NA,HLT_0619,NA,HLGT_0751,NA,NERVOUS SYSTEM DISORDERS,NA,2013-09-04,2013-09-04,2013-09-04T00:00:00Z,NA,H,NA,NA,NA,NA,NA,7,7,NA,NA,NA,NA,Y,NA,N,N,N,N,N,N,MILD,MILD,1,POSSIBLE,POSSIBLE,NA,E20,NOT RECOVERED/NOT RESOLVED,N,N,2013-09-15,2013-09-04T00:00:00Z,54,mg
CDISCPILOT01,01-701-1302,1302,701,USA,AE,2013-08-29,2013-11-05,2013-08-29,2013-11-05,2014-02-13,NA,2014-02-13,NA,NA,NA,NA,NA,NA,NA,NA,NA,NA,2013-08-20,-9,61,YEARS,18-64,M,WHITE,White,NOT HISPANIC OR LATINO,Y,Xanomeline High Dose,Xan_Hi,Xanomeline High Dose,Xan_Hi,Xanomeline High Dose,Xanomeline High Dose,2013-08-29,2013-08-29T00:00:00Z,H,2013-11-05,2013-11-05T23:59:59Z,H,DISCONTINUED,2013-11-05,NA,2013-08-29,2013-11-05,69,NA,NA,NA,NA,12,CONTUSION,CONTUSION,"INJURY, POISONING AND PROCEDURAL COMPLICATIONS",NA,BRUISE,NA,NA,HLT_0713,NA,HLGT_0381,NA,"INJURY, POISONING AND PROCEDURAL COMPLICATIONS",NA,2013-09-05,2013-09-05,2013-09-05T00:00:00Z,NA,H,2013-10-08,2013-10-08,2013-10-08T23:59:59Z,NA,H,8,8,41,41,34,days,Y,NA,N,N,N,N,N,N,MILD,MILD,1,REMOTE,REMOTE,NA,E19,NOT RECOVERED/NOT RESOLVED,N,N,2013-09-15,2013-09-05T00:00:00Z,54,mg
CDISCPILOT01,01-701-1302,1302,701,USA,AE,2013-08-29,2013-11-05,2013-08-29,2013-11-05,2014-02-13,NA,2014-02-13,NA,NA,NA,NA,NA,NA,NA,NA,NA,NA,2013-08-20,-9,61,YEARS,18-64,M,WHITE,White,NOT HISPANIC OR LATINO,Y,Xanomeline High Dose,Xan_Hi,Xanomeline High Dose,Xan_Hi,Xanomeline High Dose,Xanomeline High Dose,2013-08-29,2013-08-29T00:00:00Z,H,2013-11-05,2013-11-05T23:59:59Z,H,DISCONTINUED,2013-11-05,NA,2013-08-29,2013-11-05,69,NA,NA,NA,NA,15,CONTUSION,CONTUSION,"INJURY, POISONING AND PROCEDURAL COMPLICATIONS",NA,BRUISE,NA,NA,HLT_0713,NA,HLGT_0381,NA,"INJURY, POISONING AND PROCEDURAL COMPLICATIONS",NA,2013-09-05,2013-09-05,2013-09-05T00:00:00Z,NA,H,2013-10-08,2013-10-08,2013-10-08T23:59:59Z,NA,H,8,8,41,41,34,days,Y,NA,N,N,N,N,N,N,MILD,MILD,1,REMOTE,REMOTE,NA,E19,RECOVERED/RESOLVED,N,N,2013-10-22,2013-09-05T00:00:00Z,54,mg
CDISCPILOT01,01-701-1302,1302,701,USA,AE,2013-08-29,2013-11-05,2013-08-29,2013-11-05,2014-02-13,NA,2014-02-13,NA,NA,NA,NA,NA,NA,NA,NA,NA,NA,2013-08-20,-9,61,YEARS,18-64,M,WHITE,White,NOT HISPANIC OR LATINO,Y,Xanomeline High Dose,Xan_Hi,Xanomeline High Dose,Xan_Hi,Xanomeline High Dose,Xanomeline High Dose,2013-08-29,2013-08-29T00:00:00Z,H,2013-11-05,2013-11-05T23:59:59Z,H,DISCONTINUED,2013-11-05,NA,2013-08-29,2013-11-05,69,NA,NA,NA,NA,13,HEADACHE,HEADACHE,NERVOUS SYSTEM DISORDERS,NA,HEADACHE,NA,NA,HLT_0064,NA,HLGT_0344,NA,NERVOUS SYSTEM DISORDERS,NA,2013-09-15,2013-09-15,2013-09-15T00:00:00Z,NA,H,NA,NA,NA,NA,NA,18,18,NA,NA,NA,NA,Y,NA,N,N,N,N,N,N,MILD,MILD,1,NONE,NONE,NA,E23,NOT RECOVERED/NOT RESOLVED,N,N,2013-09-15,2013-09-15T00:00:00Z,54,mg
CDISCPILOT01,01-701-1302,1302,701,USA,AE,2013-08-29,2013-11-05,2013-08-29,2013-11-05,2014-02-13,NA,2014-02-13,NA,NA,NA,NA,NA,NA,NA,NA,NA,NA,2013-08-20,-9,61,YEARS,18-64,M,WHITE,White,NOT HISPANIC OR LATINO,Y,Xanomeline High Dose,Xan_Hi,Xanomeline High Dose,Xan_Hi,Xanomeline High Dose,Xanomeline High Dose,2013-08-29,2013-08-29T00:00:00Z,H,2013-11-05,2013-11-05T23:59:59Z,H,DISCONTINUED,2013-11-05,NA,2013-08-29,2013-11-05,69,NA,NA,NA,NA,14,EPISTAXIS,EPISTAXIS,"RESPIRATORY, THORACIC AND MEDIASTINAL DISORDERS",NA,NOSE BLEED,NA,NA,HLT_0386,NA,HLGT_0577,NA,"RESPIRATORY, THORACIC AND MEDIASTINAL DISORDERS",NA,2013-09-30,2013-09-30,2013-09-30T00:00:00Z,NA,H,NA,NA,NA,NA,NA,33,33,NA,NA,NA,NA,Y,NA,N,N,N,N,N,N,MILD,MILD,1,REMOTE,REMOTE,NA,E25,NOT RECOVERED/NOT RESOLVED,N,N,2013-10-08,2013-09-15T00:00:00Z,NA,NA
CDISCPILOT01,01-701-1302,1302,701,USA,AE,2013-08-29,2013-11-05,2013-08-29,2013-11-05,2014-02-13,NA,2014-02-13,NA,NA,NA,NA,NA,NA,NA,NA,NA,NA,2013-08-20,-9,61,YEARS,18-64,M,WHITE,White,NOT HISPANIC OR LATINO,Y,Xanomeline High Dose,Xan_Hi,Xanomeline High Dose,Xan_Hi,Xanomeline High Dose,Xanomeline High Dose,2013-08-29,2013-08-29T00:00:00Z,H,2013-11-05,2013-11-05T23:59:59Z,H,DISCONTINUED,2013-11-05,NA,2013-08-29,2013-11-05,69,NA,NA,NA,NA,16,APPLICATION SITE ERYTHEMA,APPLICATION SITE ERYTHEMA,GENERAL DISORDERS AND ADMINISTRATION SITE CONDITIONS,NA,APPLICATION SITE REDNESS,NA,NA,HLT_0617,NA,HLGT_0152,NA,GENERAL DISORDERS AND ADMINISTRATION SITE CONDITIONS,NA,2013-10-15,2013-10-15,2013-10-15T00:00:00Z,NA,H,NA,NA,NA,NA,NA,48,48,NA,NA,NA,NA,Y,NA,N,N,N,N,N,N,MILD,MILD,1,PROBABLE,PROBABLE,NA,E27,NOT RECOVERED/NOT RESOLVED,N,N,2013-10-22,2013-09-15T00:00:00Z,NA,NA
CDISCPILOT01,01-701-1302,1302,701,USA,AE,2013-08-29,2013-11-05,2013-08-29,2013-11-05,2014-02-13,NA,2014-02-13,NA,NA,NA,NA,NA,NA,NA,NA,NA,NA,2013-08-20,-9,61,YEARS,18-64,M,WHITE,White,NOT HISPANIC OR LATINO,Y,Xanomeline High Dose,Xan_Hi,Xanomeline High Dose,Xan_Hi,Xanomeline High Dose,Xanomeline High Dose,2013-08-29,2013-08-29T00:00:00Z,H,2013-11-05,2013-11-05T23:59:59Z,H,DISCONTINUED,2013-11-05,NA,2013-08-29,2013-11-05,69,NA,NA,NA,NA,17,APPLICATION SITE PRURITUS,APPLICATION SITE PRURITUS,GENERAL DISORDERS AND ADMINISTRATION SITE CONDITIONS,NA,APPLICATION SITE ITCHING,NA,NA,HLT_0317,NA,HLGT_0338,NA,GENERAL DISORDERS AND ADMINISTRATION SITE CONDITIONS,NA,2013-10-15,2013-10-15,2013-10-15T00:00:00Z,NA,H,NA,NA,NA,NA,NA,48,48,NA,NA,NA,NA,Y,NA,N,N,N,N,N,N,MILD,MILD,1,PROBABLE,PROBABLE,NA,E28,NOT RECOVERED/NOT RESOLVED,N,N,2013-10-22,2013-09-15T00:00:00Z,NA,NA
CDISCPILOT01,01-701-1302,1302,701,USA,AE,2013-08-29,2013-11-05,2013-08-29,2013-11-05,2014-02-13,NA,2014-02-13,NA,NA,NA,NA,NA,NA,NA,NA,NA,NA,2013-08-20,-9,61,YEARS,18-64,M,WHITE,White,NOT HISPANIC OR LATINO,Y,Xanomeline High Dose,Xan_Hi,Xanomeline High Dose,Xan_Hi,Xanomeline High Dose,Xanomeline High Dose,2013-08-29,2013-08-29T00:00:00Z,H,2013-11-05,2013-11-05T23:59:59Z,H,DISCONTINUED,2013-11-05,NA,2013-08-29,2013-11-05,69,NA,NA,NA,NA,19,RESPIRATORY TRACT CONGESTION,RESPIRATORY TRACT CONGESTION,"RESPIRATORY, THORACIC AND MEDIASTINAL DISORDERS",NA,RESPIRATORY TRACT CONGESTION,NA,NA,HLT_0330,NA,HLGT_0424,NA,"RESPIRATORY, THORACIC AND MEDIASTINAL DISORDERS",NA,2013-10-23,2013-10-23,2013-10-23T00:00:00Z,NA,H,NA,NA,NA,NA,NA,56,56,NA,NA,NA,NA,Y,NA,N,N,N,N,N,N,MILD,MILD,1,NONE,NONE,NA,E29,NOT RECOVERED/NOT RESOLVED,N,N,2013-11-05,2013-09-15T00:00:00Z,NA,NA
CDISCPILOT01,01-701-1302,1302,701,USA,AE,2013-08-29,2013-11-05,2013-08-29,2013-11-05,2014-02-13,NA,2014-02-13,NA,NA,NA,NA,NA,NA,NA,NA,NA,NA,2013-08-20,-9,61,YEARS,18-64,M,WHITE,White,NOT HISPANIC OR LATINO,Y,Xanomeline High Dose,Xan_Hi,Xanomeline High Dose,Xan_Hi,Xanomeline High Dose,Xanomeline High Dose,2013-08-29,2013-08-29T00:00:00Z,H,2013-11-05,2013-11-05T23:59:59Z,H,DISCONTINUED,2013-11-05,NA,2013-08-29,2013-11-05,69,NA,NA,NA,NA,20,RHINITIS,RHINITIS,INFECTIONS AND INFESTATIONS,NA,CORYZA,NA,NA,HLT_0239,NA,HLGT_0322,NA,INFECTIONS AND INFESTATIONS,NA,2013-10-23,2013-10-23,2013-10-23T00:00:00Z,NA,H,NA,NA,NA,NA,NA,56,56,NA,NA,NA,NA,Y,NA,N,N,N,N,N,N,MILD,MILD,1,NONE,NONE,NA,E30,NOT RECOVERED/NOT RESOLVED,N,N,2013-11-05,2013-09-15T00:00:00Z,NA,NA
CDISCPILOT01,01-701-1302,1302,701,USA,AE,2013-08-29,2013-11-05,2013-08-29,2013-11-05,2014-02-13,NA,2014-02-13,NA,NA,NA,NA,NA,NA,NA,NA,NA,NA,2013-08-20,-9,61,YEARS,18-64,M,WHITE,White,NOT HISPANIC OR LATINO,Y,Xanomeline High Dose,Xan_Hi,Xanomeline High Dose,Xan_Hi,Xanomeline High Dose,Xanomeline High Dose,2013-08-29,2013-08-29T00:00:00Z,H,2013-11-05,2013-11-05T23:59:59Z,H,DISCONTINUED,2013-11-05,NA,2013-08-29,2013-11-05,69,NA,NA,NA,NA,21,FEELING ABNORMAL,FEELING ABNORMAL,GENERAL DISORDERS AND ADMINISTRATION SITE CONDITIONS,NA,FOGGY FEELING IN HEAD,NA,NA,HLT_0524,NA,HLGT_0749,NA,GENERAL DISORDERS AND ADMINISTRATION SITE CONDITIONS,NA,2013-10-24,2013-10-24,2013-10-24T00:00:00Z,NA,H,NA,NA,NA,NA,NA,57,57,NA,NA,NA,NA,Y,NA,N,N,N,N,N,N,MILD,MILD,1,POSSIBLE,POSSIBLE,NA,E31,NOT RECOVERED/NOT RESOLVED,N,N,2013-11-05,2013-09-15T00:00:00Z,NA,NA
CDISCPILOT01,01-701-1302,1302,701,USA,AE,2013-08-29,2013-11-05,2013-08-29,2013-11-05,2014-02-13,NA,2014-02-13,NA,NA,NA,NA,NA,NA,NA,NA,NA,NA,2013-08-20,-9,61,YEARS,18-64,M,WHITE,White,NOT HISPANIC OR LATINO,Y,Xanomeline High Dose,Xan_Hi,Xanomeline High Dose,Xan_Hi,Xanomeline High Dose,Xanomeline High Dose,2013-08-29,2013-08-29T00:00:00Z,H,2013-11-05,2013-11-05T23:59:59Z,H,DISCONTINUED,2013-11-05,NA,2013-08-29,2013-11-05,69,NA,NA,NA,NA,22,LISTLESS,LISTLESS,PSYCHIATRIC DISORDERS,NA,LISTLESSNESS,NA,NA,HLT_0657,NA,HLGT_0124,NA,PSYCHIATRIC DISORDERS,NA,2013-10-24,2013-10-24,2013-10-24T00:00:00Z,NA,H,NA,NA,NA,NA,NA,57,57,NA,NA,NA,NA,Y,NA,N,N,N,N,N,N,MILD,MILD,1,POSSIBLE,POSSIBLE,NA,E32,NOT RECOVERED/NOT RESOLVED,N,N,2013-11-05,2013-09-15T00:00:00Z,NA,NA
CDISCPILOT01,01-701-1302,1302,701,USA,AE,2013-08-29,2013-11-05,2013-08-29,2013-11-05,2014-02-13,NA,2014-02-13,NA,NA,NA,NA,NA,NA,NA,NA,NA,NA,2013-08-20,-9,61,YEARS,18-64,M,WHITE,White,NOT HISPANIC OR LATINO,Y,Xanomeline High Dose,Xan_Hi,Xanomeline High Dose,Xan_Hi,Xanomeline High Dose,Xanomeline High Dose,2013-08-29,2013-08-29T00:00:00Z,H,2013-11-05,2013-11-05T23:59:59Z,H,DISCONTINUED,2013-11-05,NA,2013-08-29,2013-11-05,69,NA,NA,NA,NA,23,LIBIDO DECREASED,LIBIDO DECREASED,PSYCHIATRIC DISORDERS,NA,LIBIDO DECREASED,NA,NA,HLT_0338,NA,HLGT_0496,NA,PSYCHIATRIC DISORDERS,NA,2013-10-24,2013-10-24,2013-10-24T00:00:00Z,NA,H,NA,NA,NA,NA,NA,57,57,NA,NA,NA,NA,Y,NA,N,N,N,N,N,N,MILD,MILD,1,POSSIBLE,POSSIBLE,NA,E33,NOT RECOVERED/NOT RESOLVED,N,N,2013-11-05,2013-09-15T00:00:00Z,NA,NA
CDISCPILOT01,01-701-1317,1317,701,USA,AE,2014-05-22,2014-11-20,2014-05-22,2014-11-20,2014-11-20T11:54,NA,NA,NA,NA,NA,NA,NA,NA,NA,NA,NA,NA,2014-05-10,-12,68,YEARS,>64,M,WHITE,White,NOT HISPANIC OR LATINO,Y,Xanomeline Low Dose,Xan_Lo,Xanomeline Low Dose,Xan_Lo,Xanomeline Low Dose,Xanomeline Low Dose,2014-05-22,2014-05-22T00:00:00Z,H,2014-11-20,2014-11-20T23:59:59Z,H,COMPLETED,2014-11-20,NA,2014-05-22,2014-11-20,183,NA,NA,NA,NA,7,DEPRESSED MOOD,DEPRESSED MOOD,PSYCHIATRIC DISORDERS,NA,DEPRESSED MOOD,NA,NA,HLT_0784,NA,HLGT_0122,NA,PSYCHIATRIC DISORDERS,NA,2014-07-04,2014-07-04,2014-07-04T00:00:00Z,NA,H,NA,NA,NA,NA,NA,44,44,NA,NA,NA,NA,Y,Y,N,N,N,N,N,N,MODERATE,MODERATE,2,POSSIBLE,POSSIBLE,NA,E16,NOT RECOVERED/NOT RESOLVED,N,N,2014-10-09,2014-07-04T00:00:00Z,54,mg
CDISCPILOT01,01-701-1317,1317,701,USA,AE,2014-05-22,2014-11-20,2014-05-22,2014-11-20,2014-11-20T11:54,NA,NA,NA,NA,NA,NA,NA,NA,NA,NA,NA,NA,2014-05-10,-12,68,YEARS,>64,M,WHITE,White,NOT HISPANIC OR LATINO,Y,Xanomeline Low Dose,Xan_Lo,Xanomeline Low Dose,Xan_Lo,Xanomeline Low Dose,Xanomeline Low Dose,2014-05-22,2014-05-22T00:00:00Z,H,2014-11-20,2014-11-20T23:59:59Z,H,COMPLETED,2014-11-20,NA,2014-05-22,2014-11-20,183,NA,NA,NA,NA,3,APPLICATION SITE ERYTHEMA,APPLICATION SITE ERYTHEMA,GENERAL DISORDERS AND ADMINISTRATION SITE CONDITIONS,NA,APPLICATION SITE REDNESS,NA,NA,HLT_0617,NA,HLGT_0152,NA,GENERAL DISORDERS AND ADMINISTRATION SITE CONDITIONS,NA,2014-06-23,2014-06-23,2014-06-23T00:00:00Z,NA,H,NA,NA,NA,NA,NA,33,33,NA,NA,NA,NA,Y,NA,N,N,N,N,N,N,MILD,MILD,1,POSSIBLE,POSSIBLE,NA,E13,NOT RECOVERED/NOT RESOLVED,N,N,2014-07-03,2014-06-23T00:00:00Z,54,mg
CDISCPILOT01,01-701-1317,1317,701,USA,AE,2014-05-22,2014-11-20,2014-05-22,2014-11-20,2014-11-20T11:54,NA,NA,NA,NA,NA,NA,NA,NA,NA,NA,NA,NA,2014-05-10,-12,68,YEARS,>64,M,WHITE,White,NOT HISPANIC OR LATINO,Y,Xanomeline Low Dose,Xan_Lo,Xanomeline Low Dose,Xan_Lo,Xanomeline Low Dose,Xanomeline Low Dose,2014-05-22,2014-05-22T00:00:00Z,H,2014-11-20,2014-11-20T23:59:59Z,H,COMPLETED,2014-11-20,NA,2014-05-22,2014-11-20,183,NA,NA,NA,NA,4,APPLICATION SITE PRURITUS,APPLICATION SITE PRURITUS,GENERAL DISORDERS AND ADMINISTRATION SITE CONDITIONS,NA,APPLICATION SITE ITCHING,NA,NA,HLT_0317,NA,HLGT_0338,NA,GENERAL DISORDERS AND ADMINISTRATION SITE CONDITIONS,NA,2014-06-23,2014-06-23,2014-06-23T00:00:00Z,NA,H,NA,NA,NA,NA,NA,33,33,NA,NA,NA,NA,Y,NA,N,N,N,N,N,N,MILD,MILD,1,POSSIBLE,POSSIBLE,NA,E14,NOT RECOVERED/NOT RESOLVED,N,N,2014-07-03,2014-06-23T00:00:00Z,54,mg
CDISCPILOT01,01-701-1317,1317,701,USA,AE,2014-05-22,2014-11-20,2014-05-22,2014-11-20,2014-11-20T11:54,NA,NA,NA,NA,NA,NA,NA,NA,NA,NA,NA,NA,2014-05-10,-12,68,YEARS,>64,M,WHITE,White,NOT HISPANIC OR LATINO,Y,Xanomeline Low Dose,Xan_Lo,Xanomeline Low Dose,Xan_Lo,Xanomeline Low Dose,Xanomeline Low Dose,2014-05-22,2014-05-22T00:00:00Z,H,2014-11-20,2014-11-20T23:59:59Z,H,COMPLETED,2014-11-20,NA,2014-05-22,2014-11-20,183,NA,NA,NA,NA,5,APPLICATION SITE URTICARIA,APPLICATION SITE URTICARIA,GENERAL DISORDERS AND ADMINISTRATION SITE CONDITIONS,NA,APPLICATION SITE URTICARIA,NA,NA,HLT_0196,NA,HLGT_0233,NA,GENERAL DISORDERS AND ADMINISTRATION SITE CONDITIONS,NA,2014-06-23,2014-06-23,2014-06-23T00:00:00Z,NA,H,NA,NA,NA,NA,NA,33,33,NA,NA,NA,NA,Y,NA,N,N,N,N,N,N,MILD,MILD,1,POSSIBLE,POSSIBLE,NA,E15,NOT RECOVERED/NOT RESOLVED,N,N,2014-07-03,2014-06-23T00:00:00Z,54,mg
CDISCPILOT01,01-701-1317,1317,701,USA,AE,2014-05-22,2014-11-20,2014-05-22,2014-11-20,2014-11-20T11:54,NA,NA,NA,NA,NA,NA,NA,NA,NA,NA,NA,NA,2014-05-10,-12,68,YEARS,>64,M,WHITE,White,NOT HISPANIC OR LATINO,Y,Xanomeline Low Dose,Xan_Lo,Xanomeline Low Dose,Xan_Lo,Xanomeline Low Dose,Xanomeline Low Dose,2014-05-22,2014-05-22T00:00:00Z,H,2014-11-20,2014-11-20T23:59:59Z,H,COMPLETED,2014-11-20,NA,2014-05-22,2014-11-20,183,NA,NA,NA,NA,6,DEPRESSED MOOD,DEPRESSED MOOD,PSYCHIATRIC DISORDERS,NA,DEPRESSED MOOD,NA,NA,HLT_0784,NA,HLGT_0122,NA,PSYCHIATRIC DISORDERS,NA,2014-07-04,2014-07-04,2014-07-04T00:00:00Z,NA,H,NA,NA,NA,NA,NA,44,44,NA,NA,NA,NA,Y,NA,N,N,N,N,N,N,MILD,MILD,1,POSSIBLE,POSSIBLE,NA,E16,NOT RECOVERED/NOT RESOLVED,N,N,2014-07-22,2014-07-04T00:00:00Z,54,mg
CDISCPILOT01,01-701-1317,1317,701,USA,AE,2014-05-22,2014-11-20,2014-05-22,2014-11-20,2014-11-20T11:54,NA,NA,NA,NA,NA,NA,NA,NA,NA,NA,NA,NA,2014-05-10,-12,68,YEARS,>64,M,WHITE,White,NOT HISPANIC OR LATINO,Y,Xanomeline Low Dose,Xan_Lo,Xanomeline Low Dose,Xan_Lo,Xanomeline Low Dose,Xanomeline Low Dose,2014-05-22,2014-05-22T00:00:00Z,H,2014-11-20,2014-11-20T23:59:59Z,H,COMPLETED,2014-11-20,NA,2014-05-22,2014-11-20,183,NA,NA,NA,NA,8,FATIGUE,FATIGUE,GENERAL DISORDERS AND ADMINISTRATION SITE CONDITIONS,NA,TIREDNESS,NA,NA,HLT_0043,NA,HLGT_0181,NA,GENERAL DISORDERS AND ADMINISTRATION SITE CONDITIONS,NA,2014-09-12,2014-09-12,2014-09-12T00:00:00Z,NA,H,NA,NA,NA,NA,NA,114,114,NA,NA,NA,NA,Y,NA,N,N,N,N,N,N,MILD,MILD,1,REMOTE,REMOTE,NA,E17,NOT RECOVERED/NOT RESOLVED,N,N,2014-10-09,2014-09-12T00:00:00Z,54,mg
CDISCPILOT01,01-701-1317,1317,701,USA,AE,2014-05-22,2014-11-20,2014-05-22,2014-11-20,2014-11-20T11:54,NA,NA,NA,NA,NA,NA,NA,NA,NA,NA,NA,NA,2014-05-10,-12,68,YEARS,>64,M,WHITE,White,NOT HISPANIC OR LATINO,Y,Xanomeline Low Dose,Xan_Lo,Xanomeline Low Dose,Xan_Lo,Xanomeline Low Dose,Xanomeline Low Dose,2014-05-22,2014-05-22T00:00:00Z,H,2014-11-20,2014-11-20T23:59:59Z,H,COMPLETED,2014-11-20,NA,2014-05-22,2014-11-20,183,NA,NA,NA,NA,9,DYSPHONIA,DYSPHONIA,"RESPIRATORY, THORACIC AND MEDIASTINAL DISORDERS",NA,HOARSENESS,NA,NA,HLT_0073,NA,HLGT_0274,NA,"RESPIRATORY, THORACIC AND MEDIASTINAL DISORDERS",NA,2014-11-03,2014-11-03,2014-11-03T00:00:00Z,NA,H,NA,NA,NA,NA,NA,166,166,NA,NA,NA,NA,Y,NA,N,N,N,N,N,N,MILD,MILD,1,REMOTE,REMOTE,NA,E18,NOT RECOVERED/NOT RESOLVED,N,N,2014-11-06,2014-11-03T00:00:00Z,54,mg
CDISCPILOT01,01-701-1324,1324,701,USA,AE,2012-10-02,2013-04-02,2012-10-02,2013-04-02,2013-04-02T11:35,NA,NA,NA,NA,NA,NA,NA,NA,NA,NA,NA,NA,2012-09-16,-16,79,YEARS,>64,M,WHITE,White,NOT HISPANIC OR LATINO,Y,Xanomeline Low Dose,Xan_Lo,Xanomeline Low Dose,Xan_Lo,Xanomeline Low Dose,Xanomeline Low Dose,2012-10-02,2012-10-02T00:00:00Z,H,2013-04-02,2013-04-02T23:59:59Z,H,COMPLETED,2013-04-02,NA,2012-10-02,2013-04-02,183,NA,NA,NA,NA,1,APPLICATION SITE ERYTHEMA,APPLICATION SITE ERYTHEMA,GENERAL DISORDERS AND ADMINISTRATION SITE CONDITIONS,NA,APPLICATION SITE ERYTHEMA,NA,NA,HLT_0617,NA,HLGT_0152,NA,GENERAL DISORDERS AND ADMINISTRATION SITE CONDITIONS,NA,2012-10-22,2012-10-22,2012-10-22T00:00:00Z,NA,H,NA,NA,NA,NA,NA,21,21,NA,NA,NA,NA,Y,Y,N,N,N,N,N,N,MILD,MILD,1,PROBABLE,PROBABLE,NA,E04,NOT RECOVERED/NOT RESOLVED,N,N,2012-10-30,2012-10-22T00:00:00Z,54,mg
CDISCPILOT01,01-701-1324,1324,701,USA,AE,2012-10-02,2013-04-02,2012-10-02,2013-04-02,2013-04-02T11:35,NA,NA,NA,NA,NA,NA,NA,NA,NA,NA,NA,NA,2012-09-16,-16,79,YEARS,>64,M,WHITE,White,NOT HISPANIC OR LATINO,Y,Xanomeline Low Dose,Xan_Lo,Xanomeline Low Dose,Xan_Lo,Xanomeline Low Dose,Xanomeline Low Dose,2012-10-02,2012-10-02T00:00:00Z,H,2013-04-02,2013-04-02T23:59:59Z,H,COMPLETED,2013-04-02,NA,2012-10-02,2013-04-02,183,NA,NA,NA,NA,2,APPLICATION SITE PRURITUS,APPLICATION SITE PRURITUS,GENERAL DISORDERS AND ADMINISTRATION SITE CONDITIONS,NA,APPLICATION SITE ITCHING,NA,NA,HLT_0317,NA,HLGT_0338,NA,GENERAL DISORDERS AND ADMINISTRATION SITE CONDITIONS,NA,2012-12-02,2012-12-02,2012-12-02T00:00:00Z,NA,H,NA,NA,NA,NA,NA,62,62,NA,NA,NA,NA,Y,NA,N,N,N,N,N,N,MILD,MILD,1,PROBABLE,PROBABLE,NA,E06,NOT RECOVERED/NOT RESOLVED,N,N,2012-12-25,2012-12-02T00:00:00Z,54,mg
CDISCPILOT01,01-701-1324,1324,701,USA,AE,2012-10-02,2013-04-02,2012-10-02,2013-04-02,2013-04-02T11:35,NA,NA,NA,NA,NA,NA,NA,NA,NA,NA,NA,NA,2012-09-16,-16,79,YEARS,>64,M,WHITE,White,NOT HISPANIC OR LATINO,Y,Xanomeline Low Dose,Xan_Lo,Xanomeline Low Dose,Xan_Lo,Xanomeline Low Dose,Xanomeline Low Dose,2012-10-02,2012-10-02T00:00:00Z,H,2013-04-02,2013-04-02T23:59:59Z,H,COMPLETED,2013-04-02,NA,2012-10-02,2013-04-02,183,NA,NA,NA,NA,3,APPLICATION SITE VESICLES,APPLICATION SITE VESICLES,GENERAL DISORDERS AND ADMINISTRATION SITE CONDITIONS,NA,APPLICATION SITE BLISTER,NA,NA,HLT_0180,NA,HLGT_0576,NA,GENERAL DISORDERS AND ADMINISTRATION SITE CONDITIONS,NA,2012-12-25,2012-12-25,2012-12-25T00:00:00Z,NA,H,2013-01-16,2013-01-16,2013-01-16T23:59:59Z,NA,H,85,85,107,107,23,days,Y,NA,N,N,N,N,N,N,MILD,MILD,1,PROBABLE,PROBABLE,NA,E05,NOT RECOVERED/NOT RESOLVED,N,N,2012-12-25,2012-12-25T00:00:00Z,54,mg
CDISCPILOT01,01-701-1324,1324,701,USA,AE,2012-10-02,2013-04-02,2012-10-02,2013-04-02,2013-04-02T11:35,NA,NA,NA,NA,NA,NA,NA,NA,NA,NA,NA,NA,2012-09-16,-16,79,YEARS,>64,M,WHITE,White,NOT HISPANIC OR LATINO,Y,Xanomeline Low Dose,Xan_Lo,Xanomeline Low Dose,Xan_Lo,Xanomeline Low Dose,Xanomeline Low Dose,2012-10-02,2012-10-02T00:00:00Z,H,2013-04-02,2013-04-02T23:59:59Z,H,COMPLETED,2013-04-02,NA,2012-10-02,2013-04-02,183,NA,NA,NA,NA,4,APPLICATION SITE VESICLES,APPLICATION SITE VESICLES,GENERAL DISORDERS AND ADMINISTRATION SITE CONDITIONS,NA,APPLICATION SITE BLISTER,NA,NA,HLT_0180,NA,HLGT_0576,NA,GENERAL DISORDERS AND ADMINISTRATION SITE CONDITIONS,NA,2012-12-25,2012-12-25,2012-12-25T00:00:00Z,NA,H,2013-01-16,2013-01-16,2013-01-16T23:59:59Z,NA,H,85,85,107,107,23,days,Y,NA,N,N,N,N,N,N,MILD,MILD,1,PROBABLE,PROBABLE,NA,E05,RECOVERED/RESOLVED,N,N,2013-01-22,2012-12-25T00:00:00Z,54,mg
CDISCPILOT01,01-701-1341,1341,701,USA,AE,2013-01-05,2013-02-07,2013-01-05,2013-01-26,2013-02-21,NA,NA,NA,NA,NA,NA,NA,NA,NA,NA,NA,NA,2012-12-22,-14,51,YEARS,18-64,M,WHITE,White,NOT HISPANIC OR LATINO,Y,Xanomeline Low Dose,Xan_Lo,Xanomeline Low Dose,Xan_Lo,Xanomeline Low Dose,Xanomeline Low Dose,2013-01-05,2013-01-05T00:00:00Z,H,2013-01-26,2013-01-26T23:59:59Z,H,DISCONTINUED,2013-02-07,NA,2013-01-05,2013-02-07,22,NA,NA,NA,NA,1,APPLICATION SITE PRURITUS,APPLICATION SITE PRURITUS,GENERAL DISORDERS AND ADMINISTRATION SITE CONDITIONS,NA,APPLICATION SITE ITCHING,NA,NA,HLT_0317,NA,HLGT_0338,NA,GENERAL DISORDERS AND ADMINISTRATION SITE CONDITIONS,NA,2013-01-19,2013-01-19,2013-01-19T00:00:00Z,NA,H,NA,NA,NA,NA,NA,15,15,NA,NA,NA,NA,Y,Y,N,N,N,N,N,N,MODERATE,MODERATE,2,PROBABLE,PROBABLE,NA,E09,NOT RECOVERED/NOT RESOLVED,N,N,2013-02-07,2013-01-19T00:00:00Z,54,mg
CDISCPILOT01,01-701-1341,1341,701,USA,AE,2013-01-05,2013-02-07,2013-01-05,2013-01-26,2013-02-21,NA,NA,NA,NA,NA,NA,NA,NA,NA,NA,NA,NA,2012-12-22,-14,51,YEARS,18-64,M,WHITE,White,NOT HISPANIC OR LATINO,Y,Xanomeline Low Dose,Xan_Lo,Xanomeline Low Dose,Xan_Lo,Xanomeline Low Dose,Xanomeline Low Dose,2013-01-05,2013-01-05T00:00:00Z,H,2013-01-26,2013-01-26T23:59:59Z,H,DISCONTINUED,2013-02-07,NA,2013-01-05,2013-02-07,22,NA,NA,NA,NA,2,APPLICATION SITE ERYTHEMA,APPLICATION SITE ERYTHEMA,GENERAL DISORDERS AND ADMINISTRATION SITE CONDITIONS,NA,APPLICATION SITE REDNESS,NA,NA,HLT_0617,NA,HLGT_0152,NA,GENERAL DISORDERS AND ADMINISTRATION SITE CONDITIONS,NA,2013-01-19,2013-01-19,2013-01-19T00:00:00Z,NA,H,NA,NA,NA,NA,NA,15,15,NA,NA,NA,NA,Y,NA,N,N,N,N,N,N,MODERATE,MODERATE,2,PROBABLE,PROBABLE,NA,E10,NOT RECOVERED/NOT RESOLVED,N,N,2013-02-07,2013-01-19T00:00:00Z,54,mg
CDISCPILOT01,01-701-1341,1341,701,USA,AE,2013-01-05,2013-02-07,2013-01-05,2013-01-26,2013-02-21,NA,NA,NA,NA,NA,NA,NA,NA,NA,NA,NA,NA,2012-12-22,-14,51,YEARS,18-64,M,WHITE,White,NOT HISPANIC OR LATINO,Y,Xanomeline Low Dose,Xan_Lo,Xanomeline Low Dose,Xan_Lo,Xanomeline Low Dose,Xanomeline Low Dose,2013-01-05,2013-01-05T00:00:00Z,H,2013-01-26,2013-01-26T23:59:59Z,H,DISCONTINUED,2013-02-07,NA,2013-01-05,2013-02-07,22,NA,NA,NA,NA,3,APPLICATION SITE PRURITUS,APPLICATION SITE PRURITUS,GENERAL DISORDERS AND ADMINISTRATION SITE CONDITIONS,NA,APPLICATION SITE ITCHING,NA,NA,HLT_0317,NA,HLGT_0338,NA,GENERAL DISORDERS AND ADMINISTRATION SITE CONDITIONS,NA,2013-01-26,2013-01-26,2013-01-26T00:00:00Z,NA,H,2013-01-30,2013-01-30,2013-01-30T23:59:59Z,NA,H,22,22,26,26,5,days,Y,NA,N,N,N,N,N,N,MODERATE,MODERATE,2,PROBABLE,PROBABLE,NA,E11,RECOVERED/RESOLVED,N,N,2013-02-07,2013-01-26T00:00:00Z,54,mg
CDISCPILOT01,01-701-1341,1341,701,USA,AE,2013-01-05,2013-02-07,2013-01-05,2013-01-26,2013-02-21,NA,NA,NA,NA,NA,NA,NA,NA,NA,NA,NA,NA,2012-12-22,-14,51,YEARS,18-64,M,WHITE,White,NOT HISPANIC OR LATINO,Y,Xanomeline Low Dose,Xan_Lo,Xanomeline Low Dose,Xan_Lo,Xanomeline Low Dose,Xanomeline Low Dose,2013-01-05,2013-01-05T00:00:00Z,H,2013-01-26,2013-01-26T23:59:59Z,H,DISCONTINUED,2013-02-07,NA,2013-01-05,2013-02-07,22,NA,NA,NA,NA,4,APPLICATION SITE ERYTHEMA,APPLICATION SITE ERYTHEMA,GENERAL DISORDERS AND ADMINISTRATION SITE CONDITIONS,NA,APPLICATION SITE REDNESS,NA,NA,HLT_0617,NA,HLGT_0152,NA,GENERAL DISORDERS AND ADMINISTRATION SITE CONDITIONS,NA,2013-01-26,2013-01-26,2013-01-26T00:00:00Z,NA,H,NA,NA,NA,NA,NA,22,22,NA,NA,NA,NA,Y,NA,N,N,N,N,N,N,MODERATE,MODERATE,2,PROBABLE,PROBABLE,NA,E12,NOT RECOVERED/NOT RESOLVED,N,N,2013-02-07,2013-01-26T00:00:00Z,54,mg
CDISCPILOT01,01-701-1341,1341,701,USA,AE,2013-01-05,2013-02-07,2013-01-05,2013-01-26,2013-02-21,NA,NA,NA,NA,NA,NA,NA,NA,NA,NA,NA,NA,2012-12-22,-14,51,YEARS,18-64,M,WHITE,White,NOT HISPANIC OR LATINO,Y,Xanomeline Low Dose,Xan_Lo,Xanomeline Low Dose,Xan_Lo,Xanomeline Low Dose,Xanomeline Low Dose,2013-01-05,2013-01-05T00:00:00Z,H,2013-01-26,2013-01-26T23:59:59Z,H,DISCONTINUED,2013-02-07,NA,2013-01-05,2013-02-07,22,NA,NA,NA,NA,5,APPLICATION SITE IRRITATION,APPLICATION SITE IRRITATION,GENERAL DISORDERS AND ADMINISTRATION SITE CONDITIONS,NA,APPLICATION SITE BURNING,NA,NA,HLT_0061,NA,HLGT_0346,NA,GENERAL DISORDERS AND ADMINISTRATION SITE CONDITIONS,NA,2013-01-26,2013-01-26,2013-01-26T00:00:00Z,NA,H,2013-01-30,2013-01-30,2013-01-30T23:59:59Z,NA,H,22,22,26,26,5,days,Y,NA,N,N,N,N,N,N,MODERATE,MODERATE,2,PROBABLE,PROBABLE,NA,E13,RECOVERED/RESOLVED,N,N,2013-02-07,2013-01-26T00:00:00Z,54,mg
CDISCPILOT01,01-701-1360,1360,701,USA,AE,2013-07-31,2013-08-14,2013-07-31,2013-08-05,2014-02-11,NA,2014-02-11,NA,NA,NA,NA,NA,NA,NA,NA,NA,NA,2013-07-24,-7,67,YEARS,>64,M,WHITE,White,NOT HISPANIC OR LATINO,Y,Xanomeline High Dose,Xan_Hi,Xanomeline Low Dose,Xan_Lo,Xanomeline High Dose,Xanomeline Low Dose,2013-07-31,2013-07-31T00:00:00Z,H,2013-08-05,2013-08-05T23:59:59Z,H,DISCONTINUED,2013-08-14,NA,2013-07-31,2013-08-14,6,NA,NA,NA,NA,1,APPLICATION SITE ERYTHEMA,APPLICATION SITE ERYTHEMA,GENERAL DISORDERS AND ADMINISTRATION SITE CONDITIONS,NA,APPLICATION SITE ERYTHEMA,NA,NA,HLT_0617,NA,HLGT_0152,NA,GENERAL DISORDERS AND ADMINISTRATION SITE CONDITIONS,NA,2013-08-02,2013-08-02,2013-08-02T00:00:00Z,NA,H,NA,NA,NA,NA,NA,3,3,NA,NA,NA,NA,Y,Y,N,N,N,N,N,N,MODERATE,MODERATE,2,PROBABLE,PROBABLE,NA,E08,NOT RECOVERED/NOT RESOLVED,N,N,2013-08-14,2013-08-02T00:00:00Z,54,mg
CDISCPILOT01,01-701-1360,1360,701,USA,AE,2013-07-31,2013-08-14,2013-07-31,2013-08-05,2014-02-11,NA,2014-02-11,NA,NA,NA,NA,NA,NA,NA,NA,NA,NA,2013-07-24,-7,67,YEARS,>64,M,WHITE,White,NOT HISPANIC OR LATINO,Y,Xanomeline High Dose,Xan_Hi,Xanomeline Low Dose,Xan_Lo,Xanomeline High Dose,Xanomeline Low Dose,2013-07-31,2013-07-31T00:00:00Z,H,2013-08-05,2013-08-05T23:59:59Z,H,DISCONTINUED,2013-08-14,NA,2013-07-31,2013-08-14,6,NA,NA,NA,NA,2,APPLICATION SITE PRURITUS,APPLICATION SITE PRURITUS,GENERAL DISORDERS AND ADMINISTRATION SITE CONDITIONS,NA,APPLICATION SITE ITCHING,NA,NA,HLT_0317,NA,HLGT_0338,NA,GENERAL DISORDERS AND ADMINISTRATION SITE CONDITIONS,NA,2013-08-02,2013-08-02,2013-08-02T00:00:00Z,NA,H,NA,NA,NA,NA,NA,3,3,NA,NA,NA,NA,Y,NA,N,N,N,N,N,N,MODERATE,MODERATE,2,PROBABLE,PROBABLE,NA,E09,NOT RECOVERED/NOT RESOLVED,N,N,2013-08-14,2013-08-02T00:00:00Z,54,mg
CDISCPILOT01,01-701-1360,1360,701,USA,AE,2013-07-31,2013-08-14,2013-07-31,2013-08-05,2014-02-11,NA,2014-02-11,NA,NA,NA,NA,NA,NA,NA,NA,NA,NA,2013-07-24,-7,67,YEARS,>64,M,WHITE,White,NOT HISPANIC OR LATINO,Y,Xanomeline High Dose,Xan_Hi,Xanomeline Low Dose,Xan_Lo,Xanomeline High Dose,Xanomeline Low Dose,2013-07-31,2013-07-31T00:00:00Z,H,2013-08-05,2013-08-05T23:59:59Z,H,DISCONTINUED,2013-08-14,NA,2013-07-31,2013-08-14,6,NA,NA,NA,NA,3,APPLICATION SITE VESICLES,APPLICATION SITE VESICLES,GENERAL DISORDERS AND ADMINISTRATION SITE CONDITIONS,NA,APPLICATION SITE BLISTER,NA,NA,HLT_0180,NA,HLGT_0576,NA,GENERAL DISORDERS AND ADMINISTRATION SITE CONDITIONS,NA,2013-08-05,2013-08-05,2013-08-05T00:00:00Z,NA,H,NA,NA,NA,NA,NA,6,6,NA,NA,NA,NA,Y,NA,N,N,N,N,N,N,MODERATE,MODERATE,2,PROBABLE,PROBABLE,NA,E10,NOT RECOVERED/NOT RESOLVED,N,N,2013-08-14,2013-08-05T00:00:00Z,54,mg
CDISCPILOT01,01-701-1363,1363,701,USA,AE,2013-05-30,2013-11-27,2013-05-30,2013-11-27,2013-11-27T10:00,NA,NA,NA,NA,NA,NA,NA,NA,NA,NA,NA,NA,2013-05-20,-10,81,YEARS,>64,F,BLACK OR AFRICAN AMERICAN,Non-white,NOT HISPANIC OR LATINO,Y,Placebo,Pbo,Placebo,Pbo,Placebo,Placebo,2013-05-30,2013-05-30T00:00:00Z,H,2013-11-27,2013-11-27T23:59:59Z,H,COMPLETED,2013-11-27,NA,2013-05-30,2013-11-27,182,NA,NA,NA,NA,1,NAUSEA,NAUSEA,GASTROINTESTINAL DISORDERS,NA,NAUSEA,NA,NA,HLT_0742,NA,HLGT_0326,NA,GASTROINTESTINAL DISORDERS,NA,2013-06-14,2013-06-14,2013-06-14T00:00:00Z,NA,H,2013-06-15,2013-06-15,2013-06-15T23:59:59Z,NA,H,16,16,17,17,2,days,Y,Y,N,N,N,N,N,N,MILD,MILD,1,REMOTE,REMOTE,NA,E09,RECOVERED/RESOLVED,N,N,2013-06-25,2013-06-14T00:00:00Z,0,mg
CDISCPILOT01,01-701-1363,1363,701,USA,AE,2013-05-30,2013-11-27,2013-05-30,2013-11-27,2013-11-27T10:00,NA,NA,NA,NA,NA,NA,NA,NA,NA,NA,NA,NA,2013-05-20,-10,81,YEARS,>64,F,BLACK OR AFRICAN AMERICAN,Non-white,NOT HISPANIC OR LATINO,Y,Placebo,Pbo,Placebo,Pbo,Placebo,Placebo,2013-05-30,2013-05-30T00:00:00Z,H,2013-11-27,2013-11-27T23:59:59Z,H,COMPLETED,2013-11-27,NA,2013-05-30,2013-11-27,182,NA,NA,NA,NA,3,APPLICATION SITE PRURITUS,APPLICATION SITE PRURITUS,GENERAL DISORDERS AND ADMINISTRATION SITE CONDITIONS,NA,APPLICATION SITE ITCHING,NA,NA,HLT_0317,NA,HLGT_0338,NA,GENERAL DISORDERS AND ADMINISTRATION SITE CONDITIONS,NA,2013-07-16,2013-07-16,2013-07-16T00:00:00Z,NA,H,NA,NA,NA,NA,NA,48,48,NA,NA,NA,NA,Y,NA,N,N,N,N,N,N,MILD,MILD,1,PROBABLE,PROBABLE,NA,E11,NOT RECOVERED/NOT RESOLVED,N,N,2013-07-24,2013-07-16T00:00:00Z,0,mg
CDISCPILOT01,01-701-1363,1363,701,USA,AE,2013-05-30,2013-11-27,2013-05-30,2013-11-27,2013-11-27T10:00,NA,NA,NA,NA,NA,NA,NA,NA,NA,NA,NA,NA,2013-05-20,-10,81,YEARS,>64,F,BLACK OR AFRICAN AMERICAN,Non-white,NOT HISPANIC OR LATINO,Y,Placebo,Pbo,Placebo,Pbo,Placebo,Placebo,2013-05-30,2013-05-30T00:00:00Z,H,2013-11-27,2013-11-27T23:59:59Z,H,COMPLETED,2013-11-27,NA,2013-05-30,2013-11-27,182,NA,NA,NA,NA,5,BACK PAIN,BACK PAIN,MUSCULOSKELETAL AND CONNECTIVE TISSUE DISORDERS,NA,BACKACHE,NA,NA,HLT_0115,NA,HLGT_0508,NA,MUSCULOSKELETAL AND CONNECTIVE TISSUE DISORDERS,NA,2013-10-13,2013-10-13,2013-10-13T00:00:00Z,NA,H,2013-10-15,2013-10-15,2013-10-15T23:59:59Z,NA,H,137,137,139,139,3,days,Y,NA,N,N,N,N,N,N,MILD,MILD,1,NONE,NONE,NA,E13,NOT RECOVERED/NOT RESOLVED,N,N,2013-10-14,2013-10-13T00:00:00Z,0,mg
CDISCPILOT01,01-701-1363,1363,701,USA,AE,2013-05-30,2013-11-27,2013-05-30,2013-11-27,2013-11-27T10:00,NA,NA,NA,NA,NA,NA,NA,NA,NA,NA,NA,NA,2013-05-20,-10,81,YEARS,>64,F,BLACK OR AFRICAN AMERICAN,Non-white,NOT HISPANIC OR LATINO,Y,Placebo,Pbo,Placebo,Pbo,Placebo,Placebo,2013-05-30,2013-05-30T00:00:00Z,H,2013-11-27,2013-11-27T23:59:59Z,H,COMPLETED,2013-11-27,NA,2013-05-30,2013-11-27,182,NA,NA,NA,NA,6,BACK PAIN,BACK PAIN,MUSCULOSKELETAL AND CONNECTIVE TISSUE DISORDERS,NA,BACKACHE,NA,NA,HLT_0115,NA,HLGT_0508,NA,MUSCULOSKELETAL AND CONNECTIVE TISSUE DISORDERS,NA,2013-10-13,2013-10-13,2013-10-13T00:00:00Z,NA,H,2013-10-15,2013-10-15,2013-10-15T23:59:59Z,NA,H,137,137,139,139,3,days,Y,NA,N,N,N,N,N,N,MILD,MILD,1,NONE,NONE,NA,E13,RECOVERED/RESOLVED,N,N,2013-11-13,2013-10-13T00:00:00Z,0,mg
CDISCPILOT01,01-701-1383,1383,701,USA,AE,2013-02-04,2013-08-06,2013-02-04,2013-08-06,2013-08-06T12:00,NA,NA,NA,NA,NA,NA,NA,NA,NA,NA,NA,NA,2013-01-22,-13,72,YEARS,>64,F,WHITE,White,NOT HISPANIC OR LATINO,Y,Xanomeline High Dose,Xan_Hi,Xanomeline High Dose,Xan_Hi,Xanomeline High Dose,Xanomeline High Dose,2013-02-04,2013-02-04T00:00:00Z,H,2013-08-06,2013-08-06T23:59:59Z,H,COMPLETED,2013-08-06,NA,2013-02-04,2013-08-06,184,NA,NA,NA,NA,7,APPLICATION SITE PRURITUS,APPLICATION SITE PRURITUS,GENERAL DISORDERS AND ADMINISTRATION SITE CONDITIONS,NA,APPLICATION SITE ITCHING,NA,NA,HLT_0317,NA,HLGT_0338,NA,GENERAL DISORDERS AND ADMINISTRATION SITE CONDITIONS,NA,2013-03-23,2013-03-23,2013-03-23T00:00:00Z,NA,H,NA,NA,NA,NA,NA,48,48,NA,NA,NA,NA,Y,Y,N,N,N,N,N,N,MODERATE,MODERATE,2,POSSIBLE,POSSIBLE,NA,E07,NOT RECOVERED/NOT RESOLVED,N,N,2013-05-30,2013-02-19T00:00:00Z,NA,NA
CDISCPILOT01,01-701-1383,1383,701,USA,AE,2013-02-04,2013-08-06,2013-02-04,2013-08-06,2013-08-06T12:00,NA,NA,NA,NA,NA,NA,NA,NA,NA,NA,NA,NA,2013-01-22,-13,72,YEARS,>64,F,WHITE,White,NOT HISPANIC OR LATINO,Y,Xanomeline High Dose,Xan_Hi,Xanomeline High Dose,Xan_Hi,Xanomeline High Dose,Xanomeline High Dose,2013-02-04,2013-02-04T00:00:00Z,H,2013-08-06,2013-08-06T23:59:59Z,H,COMPLETED,2013-08-06,NA,2013-02-04,2013-08-06,184,NA,NA,NA,NA,8,APPLICATION SITE IRRITATION,APPLICATION SITE IRRITATION,GENERAL DISORDERS AND ADMINISTRATION SITE CONDITIONS,NA,APPLICATION SITE BURNING,NA,NA,HLT_0061,NA,HLGT_0346,NA,GENERAL DISORDERS AND ADMINISTRATION SITE CONDITIONS,NA,2013-04-12,2013-04-12,2013-04-12T00:00:00Z,NA,H,NA,NA,NA,NA,NA,68,68,NA,NA,NA,NA,Y,NA,N,N,N,N,N,N,MODERATE,MODERATE,2,POSSIBLE,POSSIBLE,NA,E09,NOT RECOVERED/NOT RESOLVED,N,N,2013-05-30,2013-02-19T00:00:00Z,NA,NA
CDISCPILOT01,01-701-1383,1383,701,USA,AE,2013-02-04,2013-08-06,2013-02-04,2013-08-06,2013-08-06T12:00,NA,NA,NA,NA,NA,NA,NA,NA,NA,NA,NA,NA,2013-01-22,-13,72,YEARS,>64,F,WHITE,White,NOT HISPANIC OR LATINO,Y,Xanomeline High Dose,Xan_Hi,Xanomeline High Dose,Xan_Hi,Xanomeline High Dose,Xanomeline High Dose,2013-02-04,2013-02-04T00:00:00Z,H,2013-08-06,2013-08-06T23:59:59Z,H,COMPLETED,2013-08-06,NA,2013-02-04,2013-08-06,184,NA,NA,NA,NA,12,COUGH,COUGH,"RESPIRATORY, THORACIC AND MEDIASTINAL DISORDERS",NA,COUGH,NA,NA,HLT_0701,NA,HLGT_0280,NA,"RESPIRATORY, THORACIC AND MEDIASTINAL DISORDERS",NA,2013-07-17,2013-07-17,2013-07-17T00:00:00Z,NA,H,2013-07-26,2013-07-26,2013-07-26T23:59:59Z,NA,H,164,164,173,173,10,days,Y,NA,N,N,N,N,N,N,MODERATE,MODERATE,2,NONE,NONE,NA,E13,RECOVERED/RESOLVED,N,N,2013-07-30,2013-02-19T00:00:00Z,NA,NA
CDISCPILOT01,01-701-1383,1383,701,USA,AE,2013-02-04,2013-08-06,2013-02-04,2013-08-06,2013-08-06T12:00,NA,NA,NA,NA,NA,NA,NA,NA,NA,NA,NA,NA,2013-01-22,-13,72,YEARS,>64,F,WHITE,White,NOT HISPANIC OR LATINO,Y,Xanomeline High Dose,Xan_Hi,Xanomeline High Dose,Xan_Hi,Xanomeline High Dose,Xanomeline High Dose,2013-02-04,2013-02-04T00:00:00Z,H,2013-08-06,2013-08-06T23:59:59Z,H,COMPLETED,2013-08-06,NA,2013-02-04,2013-08-06,184,NA,NA,NA,NA,1,APPLICATION SITE PRURITUS,APPLICATION SITE PRURITUS,GENERAL DISORDERS AND ADMINISTRATION SITE CONDITIONS,NA,APPLICATION SITE ITCHING,NA,NA,HLT_0317,NA,HLGT_0338,NA,GENERAL DISORDERS AND ADMINISTRATION SITE CONDITIONS,NA,2013-02-07,2013-02-07,2013-02-07T00:00:00Z,NA,H,2013-02-07,2013-02-07,2013-02-07T23:59:59Z,NA,H,4,4,4,4,1,days,Y,NA,N,N,N,N,N,N,MILD,MILD,1,PROBABLE,PROBABLE,NA,E04,RECOVERED/RESOLVED,N,N,2013-02-19,2013-02-07T00:00:00Z,54,mg
CDISCPILOT01,01-701-1383,1383,701,USA,AE,2013-02-04,2013-08-06,2013-02-04,2013-08-06,2013-08-06T12:00,NA,NA,NA,NA,NA,NA,NA,NA,NA,NA,NA,NA,2013-01-22,-13,72,YEARS,>64,F,WHITE,White,NOT HISPANIC OR LATINO,Y,Xanomeline High Dose,Xan_Hi,Xanomeline High Dose,Xan_Hi,Xanomeline High Dose,Xanomeline High Dose,2013-02-04,2013-02-04T00:00:00Z,H,2013-08-06,2013-08-06T23:59:59Z,H,COMPLETED,2013-08-06,NA,2013-02-04,2013-08-06,184,NA,NA,NA,NA,2,APPLICATION SITE PAIN,APPLICATION SITE PAIN,GENERAL DISORDERS AND ADMINISTRATION SITE CONDITIONS,NA,APPLICATION SITE PAIN,NA,NA,HLT_0342,NA,HLGT_0085,NA,GENERAL DISORDERS AND ADMINISTRATION SITE CONDITIONS,NA,2013-02-07,2013-02-07,2013-02-07T00:00:00Z,NA,H,2013-02-07,2013-02-07,2013-02-07T23:59:59Z,NA,H,4,4,4,4,1,days,Y,NA,N,N,N,N,N,N,MILD,MILD,1,PROBABLE,PROBABLE,NA,E05,RECOVERED/RESOLVED,N,N,2013-02-19,2013-02-07T00:00:00Z,54,mg
CDISCPILOT01,01-701-1383,1383,701,USA,AE,2013-02-04,2013-08-06,2013-02-04,2013-08-06,2013-08-06T12:00,NA,NA,NA,NA,NA,NA,NA,NA,NA,NA,NA,NA,2013-01-22,-13,72,YEARS,>64,F,WHITE,White,NOT HISPANIC OR LATINO,Y,Xanomeline High Dose,Xan_Hi,Xanomeline High Dose,Xan_Hi,Xanomeline High Dose,Xanomeline High Dose,2013-02-04,2013-02-04T00:00:00Z,H,2013-08-06,2013-08-06T23:59:59Z,H,COMPLETED,2013-08-06,NA,2013-02-04,2013-08-06,184,NA,NA,NA,NA,3,APPLICATION SITE ERYTHEMA,APPLICATION SITE ERYTHEMA,GENERAL DISORDERS AND ADMINISTRATION SITE CONDITIONS,NA,APPLICATION SITE ERYTHEMA,NA,NA,HLT_0617,NA,HLGT_0152,NA,GENERAL DISORDERS AND ADMINISTRATION SITE CONDITIONS,NA,2013-03-23,2013-03-23,2013-03-23T00:00:00Z,NA,H,2013-03-26,2013-03-26,2013-03-26T23:59:59Z,NA,H,48,48,51,51,4,days,Y,NA,N,N,N,N,N,N,MILD,MILD,1,POSSIBLE,POSSIBLE,NA,E06,RECOVERED/RESOLVED,N,N,2013-04-02,2013-02-19T00:00:00Z,NA,NA
CDISCPILOT01,01-701-1383,1383,701,USA,AE,2013-02-04,2013-08-06,2013-02-04,2013-08-06,2013-08-06T12:00,NA,NA,NA,NA,NA,NA,NA,NA,NA,NA,NA,NA,2013-01-22,-13,72,YEARS,>64,F,WHITE,White,NOT HISPANIC OR LATINO,Y,Xanomeline High Dose,Xan_Hi,Xanomeline High Dose,Xan_Hi,Xanomeline High Dose,Xanomeline High Dose,2013-02-04,2013-02-04T00:00:00Z,H,2013-08-06,2013-08-06T23:59:59Z,H,COMPLETED,2013-08-06,NA,2013-02-04,2013-08-06,184,NA,NA,NA,NA,4,APPLICATION SITE PRURITUS,APPLICATION SITE PRURITUS,GENERAL DISORDERS AND ADMINISTRATION SITE CONDITIONS,NA,APPLICATION SITE ITCHING,NA,NA,HLT_0317,NA,HLGT_0338,NA,GENERAL DISORDERS AND ADMINISTRATION SITE CONDITIONS,NA,2013-03-23,2013-03-23,2013-03-23T00:00:00Z,NA,H,NA,NA,NA,NA,NA,48,48,NA,NA,NA,NA,Y,NA,N,N,N,N,N,N,MILD,MILD,1,POSSIBLE,POSSIBLE,NA,E07,NOT RECOVERED/NOT RESOLVED,N,N,2013-04-02,2013-02-19T00:00:00Z,NA,NA
CDISCPILOT01,01-701-1383,1383,701,USA,AE,2013-02-04,2013-08-06,2013-02-04,2013-08-06,2013-08-06T12:00,NA,NA,NA,NA,NA,NA,NA,NA,NA,NA,NA,NA,2013-01-22,-13,72,YEARS,>64,F,WHITE,White,NOT HISPANIC OR LATINO,Y,Xanomeline High Dose,Xan_Hi,Xanomeline High Dose,Xan_Hi,Xanomeline High Dose,Xanomeline High Dose,2013-02-04,2013-02-04T00:00:00Z,H,2013-08-06,2013-08-06T23:59:59Z,H,COMPLETED,2013-08-06,NA,2013-02-04,2013-08-06,184,NA,NA,NA,NA,5,APPLICATION SITE ERYTHEMA,APPLICATION SITE ERYTHEMA,GENERAL DISORDERS AND ADMINISTRATION SITE CONDITIONS,NA,APPLICATION SITE ERYTHEMA,NA,NA,HLT_0617,NA,HLGT_0152,NA,GENERAL DISORDERS AND ADMINISTRATION SITE CONDITIONS,NA,2013-04-12,2013-04-12,2013-04-12T00:00:00Z,NA,H,NA,NA,NA,NA,NA,68,68,NA,NA,NA,NA,Y,NA,N,N,N,N,N,N,MILD,MILD,1,POSSIBLE,POSSIBLE,NA,E08,NOT RECOVERED/NOT RESOLVED,N,N,2013-04-30,2013-02-19T00:00:00Z,NA,NA
CDISCPILOT01,01-701-1383,1383,701,USA,AE,2013-02-04,2013-08-06,2013-02-04,2013-08-06,2013-08-06T12:00,NA,NA,NA,NA,NA,NA,NA,NA,NA,NA,NA,NA,2013-01-22,-13,72,YEARS,>64,F,WHITE,White,NOT HISPANIC OR LATINO,Y,Xanomeline High Dose,Xan_Hi,Xanomeline High Dose,Xan_Hi,Xanomeline High Dose,Xanomeline High Dose,2013-02-04,2013-02-04T00:00:00Z,H,2013-08-06,2013-08-06T23:59:59Z,H,COMPLETED,2013-08-06,NA,2013-02-04,2013-08-06,184,NA,NA,NA,NA,6,APPLICATION SITE IRRITATION,APPLICATION SITE IRRITATION,GENERAL DISORDERS AND ADMINISTRATION SITE CONDITIONS,NA,APPLICATION SITE BURNING,NA,NA,HLT_0061,NA,HLGT_0346,NA,GENERAL DISORDERS AND ADMINISTRATION SITE CONDITIONS,NA,2013-04-12,2013-04-12,2013-04-12T00:00:00Z,NA,H,NA,NA,NA,NA,NA,68,68,NA,NA,NA,NA,Y,NA,N,N,N,N,N,N,MILD,MILD,1,POSSIBLE,POSSIBLE,NA,E09,NOT RECOVERED/NOT RESOLVED,N,N,2013-04-30,2013-02-19T00:00:00Z,NA,NA
CDISCPILOT01,01-701-1383,1383,701,USA,AE,2013-02-04,2013-08-06,2013-02-04,2013-08-06,2013-08-06T12:00,NA,NA,NA,NA,NA,NA,NA,NA,NA,NA,NA,NA,2013-01-22,-13,72,YEARS,>64,F,WHITE,White,NOT HISPANIC OR LATINO,Y,Xanomeline High Dose,Xan_Hi,Xanomeline High Dose,Xan_Hi,Xanomeline High Dose,Xanomeline High Dose,2013-02-04,2013-02-04T00:00:00Z,H,2013-08-06,2013-08-06T23:59:59Z,H,COMPLETED,2013-08-06,NA,2013-02-04,2013-08-06,184,NA,NA,NA,NA,9,APPLICATION SITE VESICLES,APPLICATION SITE VESICLES,GENERAL DISORDERS AND ADMINISTRATION SITE CONDITIONS,NA,APPLICATION SITE BLISTER,NA,NA,HLT_0180,NA,HLGT_0576,NA,GENERAL DISORDERS AND ADMINISTRATION SITE CONDITIONS,NA,2013-05-07,2013-05-07,2013-05-07T00:00:00Z,NA,H,2013-05-24,2013-05-24,2013-05-24T23:59:59Z,NA,H,93,93,110,110,18,days,Y,NA,N,N,N,N,N,N,MILD,MILD,1,POSSIBLE,POSSIBLE,NA,E10,RECOVERED/RESOLVED,N,N,2013-05-30,2013-02-19T00:00:00Z,NA,NA
CDISCPILOT01,01-701-1383,1383,701,USA,AE,2013-02-04,2013-08-06,2013-02-04,2013-08-06,2013-08-06T12:00,NA,NA,NA,NA,NA,NA,NA,NA,NA,NA,NA,NA,2013-01-22,-13,72,YEARS,>64,F,WHITE,White,NOT HISPANIC OR LATINO,Y,Xanomeline High Dose,Xan_Hi,Xanomeline High Dose,Xan_Hi,Xanomeline High Dose,Xanomeline High Dose,2013-02-04,2013-02-04T00:00:00Z,H,2013-08-06,2013-08-06T23:59:59Z,H,COMPLETED,2013-08-06,NA,2013-02-04,2013-08-06,184,NA,NA,NA,NA,10,CHEST DISCOMFORT,CHEST DISCOMFORT,GENERAL DISORDERS AND ADMINISTRATION SITE CONDITIONS,NA,CHEST PRESSURE,NA,NA,HLT_0593,NA,HLGT_0441,NA,GENERAL DISORDERS AND ADMINISTRATION SITE CONDITIONS,NA,2013-06-24,2013-06-24,2013-06-24T00:00:00Z,NA,H,2013-06-24,2013-06-24,2013-06-24T23:59:59Z,NA,H,141,141,141,141,1,days,Y,NA,N,N,N,N,N,N,MILD,MILD,1,NONE,NONE,NA,E11,RECOVERED/RESOLVED,N,N,2013-06-25,2013-02-19T00:00:00Z,NA,NA
CDISCPILOT01,01-701-1383,1383,701,USA,AE,2013-02-04,2013-08-06,2013-02-04,2013-08-06,2013-08-06T12:00,NA,NA,NA,NA,NA,NA,NA,NA,NA,NA,NA,NA,2013-01-22,-13,72,YEARS,>64,F,WHITE,White,NOT HISPANIC OR LATINO,Y,Xanomeline High Dose,Xan_Hi,Xanomeline High Dose,Xan_Hi,Xanomeline High Dose,Xanomeline High Dose,2013-02-04,2013-02-04T00:00:00Z,H,2013-08-06,2013-08-06T23:59:59Z,H,COMPLETED,2013-08-06,NA,2013-02-04,2013-08-06,184,NA,NA,NA,NA,11,HEADACHE,HEADACHE,NERVOUS SYSTEM DISORDERS,NA,FULLNESS HEAD,NA,NA,HLT_0064,NA,HLGT_0344,NA,NERVOUS SYSTEM DISORDERS,NA,2013-06-24,2013-06-24,2013-06-24T00:00:00Z,NA,H,2013-06-24,2013-06-24,2013-06-24T23:59:59Z,NA,H,141,141,141,141,1,days,Y,NA,N,N,N,N,N,N,MILD,MILD,1,NONE,NONE,NA,E12,RECOVERED/RESOLVED,N,N,2013-06-25,2013-02-19T00:00:00Z,NA,NA
CDISCPILOT01,01-701-1387,1387,701,USA,AE,2014-03-12,2014-03-25,2014-03-12,2014-03-25,2014-08-27,NA,2014-08-27,NA,NA,NA,NA,NA,NA,NA,NA,NA,NA,2014-02-23,-17,87,YEARS,>64,F,WHITE,White,NOT HISPANIC OR LATINO,Y,Placebo,Pbo,Placebo,Pbo,Placebo,Placebo,2014-03-12,2014-03-12T00:00:00Z,H,2014-03-25,2014-03-25T23:59:59Z,H,DISCONTINUED,2014-03-25,NA,2014-03-12,2014-03-25,14,NA,NA,NA,NA,1,DIARRHOEA,DIARRHOEA,GASTROINTESTINAL DISORDERS,NA,DIARRHEA,NA,NA,HLT_0148,NA,HLGT_0588,NA,GASTROINTESTINAL DISORDERS,NA,2014-03-18,2014-03-18,2014-03-18T00:00:00Z,NA,H,2014-03-18,2014-03-18,2014-03-18T23:59:59Z,NA,H,7,7,7,7,1,days,Y,Y,N,N,N,N,N,N,MILD,MILD,1,REMOTE,REMOTE,NA,E08,RECOVERED/RESOLVED,N,N,2014-03-25,2014-03-18T00:00:00Z,0,mg
CDISCPILOT01,01-701-1387,1387,701,USA,AE,2014-03-12,2014-03-25,2014-03-12,2014-03-25,2014-08-27,NA,2014-08-27,NA,NA,NA,NA,NA,NA,NA,NA,NA,NA,2014-02-23,-17,87,YEARS,>64,F,WHITE,White,NOT HISPANIC OR LATINO,Y,Placebo,Pbo,Placebo,Pbo,Placebo,Placebo,2014-03-12,2014-03-12T00:00:00Z,H,2014-03-25,2014-03-25T23:59:59Z,H,DISCONTINUED,2014-03-25,NA,2014-03-12,2014-03-25,14,NA,NA,NA,NA,2,HYPERHIDROSIS,HYPERHIDROSIS,SKIN AND SUBCUTANEOUS TISSUE DISORDERS,NA,SWEATING,NA,NA,HLT_0587,NA,HLGT_0005,NA,SKIN AND SUBCUTANEOUS TISSUE DISORDERS,NA,2014-03-18,2014-03-18,2014-03-18T00:00:00Z,NA,H,2014-03-18,2014-03-18,2014-03-18T23:59:59Z,NA,H,7,7,7,7,1,days,Y,NA,N,N,N,N,N,N,MILD,MILD,1,REMOTE,REMOTE,NA,E09,RECOVERED/RESOLVED,N,N,2014-03-25,2014-03-18T00:00:00Z,0,mg
CDISCPILOT01,01-701-1392,1392,701,USA,AE,2012-10-28,2013-04-28,2012-10-28,2013-04-28,2013-04-28T11:30,NA,NA,NA,NA,NA,NA,NA,NA,NA,NA,NA,NA,2012-10-17,-11,78,YEARS,>64,M,WHITE,White,NOT HISPANIC OR LATINO,Y,Placebo,Pbo,Placebo,Pbo,Placebo,Placebo,2012-10-28,2012-10-28T00:00:00Z,H,2013-04-28,2013-04-28T23:59:59Z,H,COMPLETED,2013-04-28,NA,2012-10-28,2013-04-28,183,NA,NA,NA,NA,1,UPPER RESPIRATORY TRACT INFECTION,UPPER RESPIRATORY TRACT INFECTION,INFECTIONS AND INFESTATIONS,NA,UPPER RESPIRATORY INFECTION,NA,NA,HLT_0520,NA,HLGT_0489,NA,INFECTIONS AND INFESTATIONS,NA,2013-03-16,2013-03-16,2013-03-16T00:00:00Z,NA,H,2013-03-21,2013-03-21,2013-03-21T23:59:59Z,NA,H,140,140,145,145,6,days,Y,Y,N,N,N,N,N,N,MILD,MILD,1,REMOTE,REMOTE,NA,E04,NOT RECOVERED/NOT RESOLVED,N,N,2013-03-17,2013-03-16T00:00:00Z,0,mg
CDISCPILOT01,01-701-1392,1392,701,USA,AE,2012-10-28,2013-04-28,2012-10-28,2013-04-28,2013-04-28T11:30,NA,NA,NA,NA,NA,NA,NA,NA,NA,NA,NA,NA,2012-10-17,-11,78,YEARS,>64,M,WHITE,White,NOT HISPANIC OR LATINO,Y,Placebo,Pbo,Placebo,Pbo,Placebo,Placebo,2012-10-28,2012-10-28T00:00:00Z,H,2013-04-28,2013-04-28T23:59:59Z,H,COMPLETED,2013-04-28,NA,2012-10-28,2013-04-28,183,NA,NA,NA,NA,2,UPPER RESPIRATORY TRACT INFECTION,UPPER RESPIRATORY TRACT INFECTION,INFECTIONS AND INFESTATIONS,NA,UPPER RESPIRATORY INFECTION,NA,NA,HLT_0520,NA,HLGT_0489,NA,INFECTIONS AND INFESTATIONS,NA,2013-03-16,2013-03-16,2013-03-16T00:00:00Z,NA,H,2013-03-21,2013-03-21,2013-03-21T23:59:59Z,NA,H,140,140,145,145,6,days,Y,NA,N,N,N,N,N,N,MILD,MILD,1,REMOTE,REMOTE,NA,E04,RECOVERED/RESOLVED,N,N,2013-04-15,2013-03-16T00:00:00Z,0,mg
CDISCPILOT01,01-701-1415,1415,701,USA,AE,2013-09-23,2014-03-24,2013-09-23,2014-03-24,2014-03-24T12:34,NA,NA,NA,NA,NA,NA,NA,NA,NA,NA,NA,NA,2013-09-15,-8,85,YEARS,>64,M,WHITE,White,NOT HISPANIC OR LATINO,Y,Placebo,Pbo,Placebo,Pbo,Placebo,Placebo,2013-09-23,2013-09-23T00:00:00Z,H,2014-03-24,2014-03-24T23:59:59Z,H,COMPLETED,2014-03-24,NA,2013-09-23,2014-03-24,183,NA,NA,NA,NA,1,UPPER RESPIRATORY TRACT INFECTION,UPPER RESPIRATORY TRACT INFECTION,INFECTIONS AND INFESTATIONS,NA,UPPER RESPIRATORY INFECTION,NA,NA,HLT_0520,NA,HLGT_0489,NA,INFECTIONS AND INFESTATIONS,NA,2013-10-21,2013-10-21,2013-10-21T00:00:00Z,NA,H,2013-11-04,2013-11-04,2013-11-04T23:59:59Z,NA,H,29,29,43,43,15,days,Y,Y,N,N,N,N,N,N,MILD,MILD,1,NONE,NONE,NA,E09,NOT RECOVERED/NOT RESOLVED,N,N,2013-10-22,2013-10-21T00:00:00Z,0,mg
CDISCPILOT01,01-701-1415,1415,701,USA,AE,2013-09-23,2014-03-24,2013-09-23,2014-03-24,2014-03-24T12:34,NA,NA,NA,NA,NA,NA,NA,NA,NA,NA,NA,NA,2013-09-15,-8,85,YEARS,>64,M,WHITE,White,NOT HISPANIC OR LATINO,Y,Placebo,Pbo,Placebo,Pbo,Placebo,Placebo,2013-09-23,2013-09-23T00:00:00Z,H,2014-03-24,2014-03-24T23:59:59Z,H,COMPLETED,2014-03-24,NA,2013-09-23,2014-03-24,183,NA,NA,NA,NA,2,UPPER RESPIRATORY TRACT INFECTION,UPPER RESPIRATORY TRACT INFECTION,INFECTIONS AND INFESTATIONS,NA,UPPER RESPIRATORY INFECTION,NA,NA,HLT_0520,NA,HLGT_0489,NA,INFECTIONS AND INFESTATIONS,NA,2013-10-21,2013-10-21,2013-10-21T00:00:00Z,NA,H,2013-11-04,2013-11-04,2013-11-04T23:59:59Z,NA,H,29,29,43,43,15,days,Y,NA,N,N,N,N,N,N,MILD,MILD,1,NONE,NONE,NA,E09,RECOVERED/RESOLVED,N,N,2013-11-21,2013-10-21T00:00:00Z,0,mg
CDISCPILOT01,01-701-1415,1415,701,USA,AE,2013-09-23,2014-03-24,2013-09-23,2014-03-24,2014-03-24T12:34,NA,NA,NA,NA,NA,NA,NA,NA,NA,NA,NA,NA,2013-09-15,-8,85,YEARS,>64,M,WHITE,White,NOT HISPANIC OR LATINO,Y,Placebo,Pbo,Placebo,Pbo,Placebo,Placebo,2013-09-23,2013-09-23T00:00:00Z,H,2014-03-24,2014-03-24T23:59:59Z,H,COMPLETED,2014-03-24,NA,2013-09-23,2014-03-24,183,NA,NA,NA,NA,3,MICTURITION URGENCY,MICTURITION URGENCY,RENAL AND URINARY DISORDERS,NA,URINARY URGENCY,NA,NA,HLT_0294,NA,HLGT_0483,NA,RENAL AND URINARY DISORDERS,NA,2013-12-02,2013-12-02,2013-12-02T00:00:00Z,NA,H,NA,NA,NA,NA,NA,71,71,NA,NA,NA,NA,Y,NA,N,N,N,N,N,N,MILD,MILD,1,NONE,NONE,NA,E10,NOT RECOVERED/NOT RESOLVED,N,N,2013-12-21,2013-12-02T00:00:00Z,0,mg
CDISCPILOT01,01-701-1415,1415,701,USA,AE,2013-09-23,2014-03-24,2013-09-23,2014-03-24,2014-03-24T12:34,NA,NA,NA,NA,NA,NA,NA,NA,NA,NA,NA,NA,2013-09-15,-8,85,YEARS,>64,M,WHITE,White,NOT HISPANIC OR LATINO,Y,Placebo,Pbo,Placebo,Pbo,Placebo,Placebo,2013-09-23,2013-09-23T00:00:00Z,H,2014-03-24,2014-03-24T23:59:59Z,H,COMPLETED,2014-03-24,NA,2013-09-23,2014-03-24,183,NA,NA,NA,NA,4,UPPER RESPIRATORY TRACT INFECTION,UPPER RESPIRATORY TRACT INFECTION,INFECTIONS AND INFESTATIONS,NA,UPPER RESPIRATORY INFECTION,NA,NA,HLT_0520,NA,HLGT_0489,NA,INFECTIONS AND INFESTATIONS,NA,2014-01-21,2014-01-21,2014-01-21T00:00:00Z,NA,H,2014-02-10,2014-02-10,2014-02-10T23:59:59Z,NA,H,121,121,141,141,21,days,Y,NA,N,N,N,N,N,N,MILD,MILD,1,REMOTE,REMOTE,NA,E11,NOT RECOVERED/NOT RESOLVED,N,N,2014-02-10,2014-01-21T00:00:00Z,0,mg
CDISCPILOT01,01-701-1415,1415,701,USA,AE,2013-09-23,2014-03-24,2013-09-23,2014-03-24,2014-03-24T12:34,NA,NA,NA,NA,NA,NA,NA,NA,NA,NA,NA,NA,2013-09-15,-8,85,YEARS,>64,M,WHITE,White,NOT HISPANIC OR LATINO,Y,Placebo,Pbo,Placebo,Pbo,Placebo,Placebo,2013-09-23,2013-09-23T00:00:00Z,H,2014-03-24,2014-03-24T23:59:59Z,H,COMPLETED,2014-03-24,NA,2013-09-23,2014-03-24,183,NA,NA,NA,NA,5,UPPER RESPIRATORY TRACT INFECTION,UPPER RESPIRATORY TRACT INFECTION,INFECTIONS AND INFESTATIONS,NA,UPPER RESPIRATORY INFECTION,NA,NA,HLT_0520,NA,HLGT_0489,NA,INFECTIONS AND INFESTATIONS,NA,2014-01-21,2014-01-21,2014-01-21T00:00:00Z,NA,H,2014-02-10,2014-02-10,2014-02-10T23:59:59Z,NA,H,121,121,141,141,21,days,Y,NA,N,N,N,N,N,N,MILD,MILD,1,REMOTE,REMOTE,NA,E11,RECOVERED/RESOLVED,N,N,2014-03-10,2014-01-21T00:00:00Z,0,mg
CDISCPILOT01,01-701-1415,1415,701,USA,AE,2013-09-23,2014-03-24,2013-09-23,2014-03-24,2014-03-24T12:34,NA,NA,NA,NA,NA,NA,NA,NA,NA,NA,NA,NA,2013-09-15,-8,85,YEARS,>64,M,WHITE,White,NOT HISPANIC OR LATINO,Y,Placebo,Pbo,Placebo,Pbo,Placebo,Placebo,2013-09-23,2013-09-23T00:00:00Z,H,2014-03-24,2014-03-24T23:59:59Z,H,COMPLETED,2014-03-24,NA,2013-09-23,2014-03-24,183,NA,NA,NA,NA,6,DIARRHOEA,DIARRHOEA,GASTROINTESTINAL DISORDERS,NA,DIARRHEA,NA,NA,HLT_0148,NA,HLGT_0588,NA,GASTROINTESTINAL DISORDERS,NA,2014-03-09,2014-03-09,2014-03-09T00:00:00Z,NA,H,2014-03-09,2014-03-09,2014-03-09T23:59:59Z,NA,H,168,168,168,168,1,days,Y,NA,N,N,N,N,N,N,MILD,MILD,1,NONE,NONE,NA,E12,RECOVERED/RESOLVED,N,N,2014-03-10,2014-03-09T00:00:00Z,0,mg
CDISCPILOT01,01-701-1442,1442,701,USA,AE,2013-10-26,2014-04-26,2013-10-26,2014-04-26,2014-04-26T10:00,NA,NA,NA,NA,NA,NA,NA,NA,NA,NA,NA,NA,2013-10-17,-9,57,YEARS,18-64,F,BLACK OR AFRICAN AMERICAN,Non-white,NOT HISPANIC OR LATINO,Y,Xanomeline Low Dose,Xan_Lo,Xanomeline Low Dose,Xan_Lo,Xanomeline Low Dose,Xanomeline Low Dose,2013-10-26,2013-10-26T00:00:00Z,H,2014-04-26,2014-04-26T23:59:59Z,H,COMPLETED,2014-04-26,NA,2013-10-26,2014-04-26,183,NA,NA,NA,NA,1,APPLICATION SITE PRURITUS,APPLICATION SITE PRURITUS,GENERAL DISORDERS AND ADMINISTRATION SITE CONDITIONS,NA,APPLICATION SITE ITCHING,NA,NA,HLT_0317,NA,HLGT_0338,NA,GENERAL DISORDERS AND ADMINISTRATION SITE CONDITIONS,NA,2014-01-10,2014-01-10,2014-01-10T00:00:00Z,NA,H,NA,NA,NA,NA,NA,77,77,NA,NA,NA,NA,Y,Y,N,N,N,N,N,N,MILD,MILD,1,PROBABLE,PROBABLE,NA,E03,NOT RECOVERED/NOT RESOLVED,N,N,2014-01-18,2014-01-10T00:00:00Z,54,mg
CDISCPILOT01,01-701-1444,1444,701,USA,AE,2013-01-05,2013-02-13,2013-01-05,2013-02-12,2013-06-20,NA,2013-06-20,NA,NA,NA,NA,NA,NA,NA,NA,NA,NA,2012-12-31,-5,63,YEARS,18-64,M,WHITE,White,HISPANIC OR LATINO,Y,Xanomeline High Dose,Xan_Hi,Xanomeline High Dose,Xan_Hi,Xanomeline High Dose,Xanomeline High Dose,2013-01-05,2013-01-05T00:00:00Z,H,2013-02-12,2013-02-12T23:59:59Z,H,DISCONTINUED,2013-02-13,NA,2013-01-05,2013-02-13,39,NA,NA,NA,NA,4,APPLICATION SITE ERYTHEMA,APPLICATION SITE ERYTHEMA,GENERAL DISORDERS AND ADMINISTRATION SITE CONDITIONS,NA,APPLICATION SITE ERYTHEMA,NA,NA,HLT_0617,NA,HLGT_0152,NA,GENERAL DISORDERS AND ADMINISTRATION SITE CONDITIONS,NA,2013-01-19,2013-01-19,2013-01-19T00:00:00Z,NA,H,NA,NA,NA,NA,NA,15,15,NA,NA,NA,NA,Y,Y,N,N,N,N,N,N,MODERATE,MODERATE,2,POSSIBLE,POSSIBLE,NA,E11,NOT RECOVERED/NOT RESOLVED,N,N,2013-02-13,2013-01-18T00:00:00Z,NA,NA
CDISCPILOT01,01-701-1444,1444,701,USA,AE,2013-01-05,2013-02-13,2013-01-05,2013-02-12,2013-06-20,NA,2013-06-20,NA,NA,NA,NA,NA,NA,NA,NA,NA,NA,2012-12-31,-5,63,YEARS,18-64,M,WHITE,White,HISPANIC OR LATINO,Y,Xanomeline High Dose,Xan_Hi,Xanomeline High Dose,Xan_Hi,Xanomeline High Dose,Xanomeline High Dose,2013-01-05,2013-01-05T00:00:00Z,H,2013-02-12,2013-02-12T23:59:59Z,H,DISCONTINUED,2013-02-13,NA,2013-01-05,2013-02-13,39,NA,NA,NA,NA,5,APPLICATION SITE PRURITUS,APPLICATION SITE PRURITUS,GENERAL DISORDERS AND ADMINISTRATION SITE CONDITIONS,NA,APPLICATION SITE ITCHING,NA,NA,HLT_0317,NA,HLGT_0338,NA,GENERAL DISORDERS AND ADMINISTRATION SITE CONDITIONS,NA,2013-01-19,2013-01-19,2013-01-19T00:00:00Z,NA,H,NA,NA,NA,NA,NA,15,15,NA,NA,NA,NA,Y,NA,N,N,N,N,N,N,MODERATE,MODERATE,2,PROBABLE,PROBABLE,NA,E12,NOT RECOVERED/NOT RESOLVED,N,N,2013-02-13,2013-01-18T00:00:00Z,NA,NA
CDISCPILOT01,01-701-1444,1444,701,USA,AE,2013-01-05,2013-02-13,2013-01-05,2013-02-12,2013-06-20,NA,2013-06-20,NA,NA,NA,NA,NA,NA,NA,NA,NA,NA,2012-12-31,-5,63,YEARS,18-64,M,WHITE,White,HISPANIC OR LATINO,Y,Xanomeline High Dose,Xan_Hi,Xanomeline High Dose,Xan_Hi,Xanomeline High Dose,Xanomeline High Dose,2013-01-05,2013-01-05T00:00:00Z,H,2013-02-12,2013-02-12T23:59:59Z,H,DISCONTINUED,2013-02-13,NA,2013-01-05,2013-02-13,39,NA,NA,NA,NA,6,APPLICATION SITE IRRITATION,APPLICATION SITE IRRITATION,GENERAL DISORDERS AND ADMINISTRATION SITE CONDITIONS,NA,APPLICATION SITE BURNING,NA,NA,HLT_0061,NA,HLGT_0346,NA,GENERAL DISORDERS AND ADMINISTRATION SITE CONDITIONS,NA,2013-02-04,2013-02-04,2013-02-04T00:00:00Z,NA,H,NA,NA,NA,NA,NA,31,31,NA,NA,NA,NA,Y,NA,N,N,N,N,N,N,MODERATE,MODERATE,2,PROBABLE,PROBABLE,NA,E15,NOT RECOVERED/NOT RESOLVED,N,N,2013-02-13,2013-01-18T00:00:00Z,NA,NA
CDISCPILOT01,01-701-1444,1444,701,USA,AE,2013-01-05,2013-02-13,2013-01-05,2013-02-12,2013-06-20,NA,2013-06-20,NA,NA,NA,NA,NA,NA,NA,NA,NA,NA,2012-12-31,-5,63,YEARS,18-64,M,WHITE,White,HISPANIC OR LATINO,Y,Xanomeline High Dose,Xan_Hi,Xanomeline High Dose,Xan_Hi,Xanomeline High Dose,Xanomeline High Dose,2013-01-05,2013-01-05T00:00:00Z,H,2013-02-12,2013-02-12T23:59:59Z,H,DISCONTINUED,2013-02-13,NA,2013-01-05,2013-02-13,39,NA,NA,NA,NA,7,APPLICATION SITE VESICLES,APPLICATION SITE VESICLES,GENERAL DISORDERS AND ADMINISTRATION SITE CONDITIONS,NA,APPLICATION SITE BLISTER,NA,NA,HLT_0180,NA,HLGT_0576,NA,GENERAL DISORDERS AND ADMINISTRATION SITE CONDITIONS,NA,2013-02-04,2013-02-04,2013-02-04T00:00:00Z,NA,H,NA,NA,NA,NA,NA,31,31,NA,NA,NA,NA,Y,NA,N,N,N,N,N,N,MODERATE,MODERATE,2,PROBABLE,PROBABLE,NA,E16,NOT RECOVERED/NOT RESOLVED,N,N,2013-02-13,2013-01-18T00:00:00Z,NA,NA
CDISCPILOT01,01-701-1444,1444,701,USA,AE,2013-01-05,2013-02-13,2013-01-05,2013-02-12,2013-06-20,NA,2013-06-20,NA,NA,NA,NA,NA,NA,NA,NA,NA,NA,2012-12-31,-5,63,YEARS,18-64,M,WHITE,White,HISPANIC OR LATINO,Y,Xanomeline High Dose,Xan_Hi,Xanomeline High Dose,Xan_Hi,Xanomeline High Dose,Xanomeline High Dose,2013-01-05,2013-01-05T00:00:00Z,H,2013-02-12,2013-02-12T23:59:59Z,H,DISCONTINUED,2013-02-13,NA,2013-01-05,2013-02-13,39,NA,NA,NA,NA,1,APPLICATION SITE ERYTHEMA,APPLICATION SITE ERYTHEMA,GENERAL DISORDERS AND ADMINISTRATION SITE CONDITIONS,NA,APPLICATION SITE ERYTHEMA,NA,NA,HLT_0617,NA,HLGT_0152,NA,GENERAL DISORDERS AND ADMINISTRATION SITE CONDITIONS,NA,2013-01-19,2013-01-19,2013-01-19T00:00:00Z,NA,H,NA,NA,NA,NA,NA,15,15,NA,NA,NA,NA,Y,NA,N,N,N,N,N,N,MILD,MILD,1,POSSIBLE,POSSIBLE,NA,E11,NOT RECOVERED/NOT RESOLVED,N,N,2013-01-31,2013-01-18T00:00:00Z,NA,NA
CDISCPILOT01,01-701-1444,1444,701,USA,AE,2013-01-05,2013-02-13,2013-01-05,2013-02-12,2013-06-20,NA,2013-06-20,NA,NA,NA,NA,NA,NA,NA,NA,NA,NA,2012-12-31,-5,63,YEARS,18-64,M,WHITE,White,HISPANIC OR LATINO,Y,Xanomeline High Dose,Xan_Hi,Xanomeline High Dose,Xan_Hi,Xanomeline High Dose,Xanomeline High Dose,2013-01-05,2013-01-05T00:00:00Z,H,2013-02-12,2013-02-12T23:59:59Z,H,DISCONTINUED,2013-02-13,NA,2013-01-05,2013-02-13,39,NA,NA,NA,NA,2,APPLICATION SITE PRURITUS,APPLICATION SITE PRURITUS,GENERAL DISORDERS AND ADMINISTRATION SITE CONDITIONS,NA,APPLICATION SITE ITCHING,NA,NA,HLT_0317,NA,HLGT_0338,NA,GENERAL DISORDERS AND ADMINISTRATION SITE CONDITIONS,NA,2013-01-19,2013-01-19,2013-01-19T00:00:00Z,NA,H,NA,NA,NA,NA,NA,15,15,NA,NA,NA,NA,Y,NA,N,N,N,N,N,N,MILD,MILD,1,PROBABLE,PROBABLE,NA,E12,NOT RECOVERED/NOT RESOLVED,N,N,2013-01-31,2013-01-18T00:00:00Z,NA,NA
CDISCPILOT01,01-701-1444,1444,701,USA,AE,2013-01-05,2013-02-13,2013-01-05,2013-02-12,2013-06-20,NA,2013-06-20,NA,NA,NA,NA,NA,NA,NA,NA,NA,NA,2012-12-31,-5,63,YEARS,18-64,M,WHITE,White,HISPANIC OR LATINO,Y,Xanomeline High Dose,Xan_Hi,Xanomeline High Dose,Xan_Hi,Xanomeline High Dose,Xanomeline High Dose,2013-01-05,2013-01-05T00:00:00Z,H,2013-02-12,2013-02-12T23:59:59Z,H,DISCONTINUED,2013-02-13,NA,2013-01-05,2013-02-13,39,NA,NA,NA,NA,3,SALIVARY HYPERSECRETION,SALIVARY HYPERSECRETION,GASTROINTESTINAL DISORDERS,NA,HYPERSALIVATION,NA,NA,HLT_0374,NA,HLGT_0488,NA,GASTROINTESTINAL DISORDERS,NA,2013-01-19,2013-01-19,2013-01-19T00:00:00Z,NA,H,NA,NA,NA,NA,NA,15,15,NA,NA,NA,NA,Y,NA,N,N,N,N,N,N,MILD,MILD,1,POSSIBLE,POSSIBLE,NA,E13,NOT RECOVERED/NOT RESOLVED,N,N,2013-01-31,2013-01-18T00:00:00Z,NA,NA
CDISCPILOT01,01-701-1444,1444,701,USA,AE,2013-01-05,2013-02-13,2013-01-05,2013-02-12,2013-06-20,NA,2013-06-20,NA,NA,NA,NA,NA,NA,NA,NA,NA,NA,2012-12-31,-5,63,YEARS,18-64,M,WHITE,White,HISPANIC OR LATINO,Y,Xanomeline High Dose,Xan_Hi,Xanomeline High Dose,Xan_Hi,Xanomeline High Dose,Xanomeline High Dose,2013-01-05,2013-01-05T00:00:00Z,H,2013-02-12,2013-02-12T23:59:59Z,H,DISCONTINUED,2013-02-13,NA,2013-01-05,2013-02-13,39,NA,NA,NA,NA,8,PARAESTHESIA,PARAESTHESIA,NERVOUS SYSTEM DISORDERS,NA,TINGLING,NA,NA,HLT_0481,NA,HLGT_0534,NA,NERVOUS SYSTEM DISORDERS,NA,2013-02-08,2013-02-08,2013-02-08T00:00:00Z,NA,H,2013-02-08,2013-02-08,2013-02-08T23:59:59Z,NA,H,35,35,35,35,1,days,Y,NA,N,N,N,N,N,N,MILD,MILD,1,NONE,NONE,NA,E14,RECOVERED/RESOLVED,N,N,2013-02-13,2013-01-18T00:00:00Z,NA,NA
CDISCPILOT01,01-702-1082,1082,702,USA,AE,2013-07-26,2013-11-17,2013-07-26,2013-10-13,2013-11-17T12:20,NA,NA,NA,NA,NA,NA,NA,NA,NA,NA,NA,NA,2013-07-03,-23,84,YEARS,>64,F,WHITE,White,NOT HISPANIC OR LATINO,Y,Xanomeline Low Dose,Xan_Lo,Xanomeline Low Dose,Xan_Lo,Xanomeline Low Dose,Xanomeline Low Dose,2013-07-26,2013-07-26T00:00:00Z,H,2013-10-13,2013-10-13T23:59:59Z,H,DISCONTINUED,2013-11-17,NA,2013-07-26,2013-11-17,80,NA,NA,NA,NA,10,SKIN IRRITATION,SKIN IRRITATION,SKIN AND SUBCUTANEOUS TISSUE DISORDERS,NA,SKIN IRRITATION,NA,NA,HLT_0583,NA,HLGT_0384,NA,SKIN AND SUBCUTANEOUS TISSUE DISORDERS,NA,2013-10-12,2013-10-12,2013-10-12T00:00:00Z,NA,H,2013-10-31,2013-10-31,2013-10-31T23:59:59Z,NA,H,79,79,98,98,20,days,Y,Y,N,N,N,N,N,N,MODERATE,MODERATE,2,PROBABLE,PROBABLE,NA,E08,RECOVERED/RESOLVED,N,N,2013-11-17,2013-10-12T00:00:00Z,54,mg
CDISCPILOT01,01-702-1082,1082,702,USA,AE,2013-07-26,2013-11-17,2013-07-26,2013-10-13,2013-11-17T12:20,NA,NA,NA,NA,NA,NA,NA,NA,NA,NA,NA,NA,2013-07-03,-23,84,YEARS,>64,F,WHITE,White,NOT HISPANIC OR LATINO,Y,Xanomeline Low Dose,Xan_Lo,Xanomeline Low Dose,Xan_Lo,Xanomeline Low Dose,Xanomeline Low Dose,2013-07-26,2013-07-26T00:00:00Z,H,2013-10-13,2013-10-13T23:59:59Z,H,DISCONTINUED,2013-11-17,NA,2013-07-26,2013-11-17,80,NA,NA,NA,NA,7,RECTAL HAEMORRHAGE,RECTAL HAEMORRHAGE,GASTROINTESTINAL DISORDERS,NA,RECTAL BLEEDING,NA,NA,HLT_0353,NA,HLGT_0755,NA,GASTROINTESTINAL DISORDERS,NA,2013-09-02,2013-09-02,2013-09-02T00:00:00Z,NA,H,2013-09-06,2013-09-06,2013-09-06T23:59:59Z,NA,H,39,39,43,43,5,days,Y,NA,N,N,N,N,N,N,MILD,MILD,1,NONE,NONE,NA,E06,NOT RECOVERED/NOT RESOLVED,N,N,2013-09-06,2013-09-02T00:00:00Z,54,mg
CDISCPILOT01,01-702-1082,1082,702,USA,AE,2013-07-26,2013-11-17,2013-07-26,2013-10-13,2013-11-17T12:20,NA,NA,NA,NA,NA,NA,NA,NA,NA,NA,NA,NA,2013-07-03,-23,84,YEARS,>64,F,WHITE,White,NOT HISPANIC OR LATINO,Y,Xanomeline Low Dose,Xan_Lo,Xanomeline Low Dose,Xan_Lo,Xanomeline Low Dose,Xanomeline Low Dose,2013-07-26,2013-07-26T00:00:00Z,H,2013-10-13,2013-10-13T23:59:59Z,H,DISCONTINUED,2013-11-17,NA,2013-07-26,2013-11-17,80,NA,NA,NA,NA,8,RECTAL HAEMORRHAGE,RECTAL HAEMORRHAGE,GASTROINTESTINAL DISORDERS,NA,RECTAL BLEEDING,NA,NA,HLT_0353,NA,HLGT_0755,NA,GASTROINTESTINAL DISORDERS,NA,2013-09-02,2013-09-02,2013-09-02T00:00:00Z,NA,H,2013-09-06,2013-09-06,2013-09-06T23:59:59Z,NA,H,39,39,43,43,5,days,Y,NA,N,N,N,N,N,N,MILD,MILD,1,NONE,NONE,NA,E06,RECOVERED/RESOLVED,N,N,2013-09-28,2013-09-02T00:00:00Z,54,mg
CDISCPILOT01,01-702-1082,1082,702,USA,AE,2013-07-26,2013-11-17,2013-07-26,2013-10-13,2013-11-17T12:20,NA,NA,NA,NA,NA,NA,NA,NA,NA,NA,NA,NA,2013-07-03,-23,84,YEARS,>64,F,WHITE,White,NOT HISPANIC OR LATINO,Y,Xanomeline Low Dose,Xan_Lo,Xanomeline Low Dose,Xan_Lo,Xanomeline Low Dose,Xanomeline Low Dose,2013-07-26,2013-07-26T00:00:00Z,H,2013-10-13,2013-10-13T23:59:59Z,H,DISCONTINUED,2013-11-17,NA,2013-07-26,2013-11-17,80,NA,NA,NA,NA,9,APPLICATION SITE IRRITATION,APPLICATION SITE IRRITATION,GENERAL DISORDERS AND ADMINISTRATION SITE CONDITIONS,NA,APPLICATION SITE IRRITATION,NA,NA,HLT_0061,NA,HLGT_0346,NA,GENERAL DISORDERS AND ADMINISTRATION SITE CONDITIONS,NA,2013-09-09,2013-09-09,2013-09-09T00:00:00Z,NA,H,2013-09-24,2013-09-24,2013-09-24T23:59:59Z,NA,H,46,46,61,61,16,days,Y,NA,N,N,N,N,N,N,MILD,MILD,1,PROBABLE,PROBABLE,NA,E07,RECOVERED/RESOLVED,N,N,2013-09-28,2013-09-09T00:00:00Z,54,mg
CDISCPILOT01,01-703-1042,1042,703,USA,AE,2013-03-02,2013-08-31,2013-03-02,2013-08-31,2013-08-31T11:00,NA,NA,NA,NA,NA,NA,NA,NA,NA,NA,NA,NA,2013-02-23,-7,64,YEARS,18-64,M,WHITE,White,NOT HISPANIC OR LATINO,Y,Placebo,Pbo,Placebo,Pbo,Placebo,Placebo,2013-03-02,2013-03-02T00:00:00Z,H,2013-08-31,2013-08-31T23:59:59Z,H,COMPLETED,2013-08-31,NA,2013-03-02,2013-08-31,183,NA,NA,NA,NA,1,DIARRHOEA,DIARRHOEA,GASTROINTESTINAL DISORDERS,NA,DIARRHEA,NA,NA,HLT_0148,NA,HLGT_0588,NA,GASTROINTESTINAL DISORDERS,NA,2013-03-04,2013-03-04,2013-03-04T00:00:00Z,NA,H,2013-03-05,2013-03-05,2013-03-05T23:59:59Z,NA,H,3,3,4,4,2,days,Y,Y,N,N,N,N,N,N,MILD,MILD,1,POSSIBLE,POSSIBLE,NA,E04,RECOVERED/RESOLVED,N,N,2013-03-14,2013-03-04T00:00:00Z,0,mg
CDISCPILOT01,01-703-1042,1042,703,USA,AE,2013-03-02,2013-08-31,2013-03-02,2013-08-31,2013-08-31T11:00,NA,NA,NA,NA,NA,NA,NA,NA,NA,NA,NA,NA,2013-02-23,-7,64,YEARS,18-64,M,WHITE,White,NOT HISPANIC OR LATINO,Y,Placebo,Pbo,Placebo,Pbo,Placebo,Placebo,2013-03-02,2013-03-02T00:00:00Z,H,2013-08-31,2013-08-31T23:59:59Z,H,COMPLETED,2013-08-31,NA,2013-03-02,2013-08-31,183,NA,NA,NA,NA,2,INSOMNIA,INSOMNIA,PSYCHIATRIC DISORDERS,NA,INSOMNIA,NA,NA,HLT_0297,NA,HLGT_0469,NA,PSYCHIATRIC DISORDERS,NA,2013-03-05,2013-03-05,2013-03-05T00:00:00Z,NA,H,2013-03-06,2013-03-06,2013-03-06T23:59:59Z,NA,H,4,4,5,5,2,days,Y,NA,N,N,N,N,N,N,MILD,MILD,1,REMOTE,REMOTE,NA,E05,RECOVERED/RESOLVED,N,N,2013-03-14,2013-03-05T00:00:00Z,0,mg
CDISCPILOT01,01-703-1076,1076,703,USA,AE,2013-10-25,2013-12-24,2013-10-25,2013-12-24,2014-01-21,NA,NA,NA,NA,NA,NA,NA,NA,NA,NA,NA,NA,2013-10-17,-8,69,YEARS,>64,M,WHITE,White,NOT HISPANIC OR LATINO,Y,Xanomeline High Dose,Xan_Hi,Xanomeline High Dose,Xan_Hi,Xanomeline High Dose,Xanomeline High Dose,2013-10-25,2013-10-25T00:00:00Z,H,2013-12-24,2013-12-24T23:59:59Z,H,DISCONTINUED,2013-12-24,NA,2013-10-25,2013-12-24,61,NA,NA,NA,NA,1,BIOPSY PROSTATE,BIOPSY PROSTATE,INVESTIGATIONS,NA,BIOPSY OF PROSTATE,NA,NA,HLT_0553,NA,HLGT_0725,NA,INVESTIGATIONS,NA,2013-11-16,2013-11-16,2013-11-16T00:00:00Z,NA,H,2013-11-16,2013-11-16,2013-11-16T23:59:59Z,NA,H,23,23,23,23,1,days,Y,Y,N,N,N,N,N,N,MODERATE,MODERATE,2,NONE,NONE,NA,E02,RECOVERED/RESOLVED,N,N,2013-11-20,2013-11-06T00:00:00Z,NA,NA
CDISCPILOT01,01-703-1076,1076,703,USA,AE,2013-10-25,2013-12-24,2013-10-25,2013-12-24,2014-01-21,NA,NA,NA,NA,NA,NA,NA,NA,NA,NA,NA,NA,2013-10-17,-8,69,YEARS,>64,M,WHITE,White,NOT HISPANIC OR LATINO,Y,Xanomeline High Dose,Xan_Hi,Xanomeline High Dose,Xan_Hi,Xanomeline High Dose,Xanomeline High Dose,2013-10-25,2013-10-25T00:00:00Z,H,2013-12-24,2013-12-24T23:59:59Z,H,DISCONTINUED,2013-12-24,NA,2013-10-25,2013-12-24,61,NA,NA,NA,NA,2,BENIGN PROSTATIC HYPERPLASIA,BENIGN PROSTATIC HYPERPLASIA,REPRODUCTIVE SYSTEM AND BREAST DISORDERS,NA,BENIGN PROSTATIC HYPERTROPHY,NA,NA,HLT_0215,NA,HLGT_0568,NA,REPRODUCTIVE SYSTEM AND BREAST DISORDERS,NA,2013-11-20,2013-11-20,2013-11-20T00:00:00Z,NA,H,NA,NA,NA,NA,NA,27,27,NA,NA,NA,NA,Y,NA,N,N,N,N,N,N,MODERATE,MODERATE,2,NONE,NONE,NA,E01,NOT RECOVERED/NOT RESOLVED,N,N,2013-11-20,2013-11-06T00:00:00Z,NA,NA
CDISCPILOT01,01-703-1076,1076,703,USA,AE,2013-10-25,2013-12-24,2013-10-25,2013-12-24,2014-01-21,NA,NA,NA,NA,NA,NA,NA,NA,NA,NA,NA,NA,2013-10-17,-8,69,YEARS,>64,M,WHITE,White,NOT HISPANIC OR LATINO,Y,Xanomeline High Dose,Xan_Hi,Xanomeline High Dose,Xan_Hi,Xanomeline High Dose,Xanomeline High Dose,2013-10-25,2013-10-25T00:00:00Z,H,2013-12-24,2013-12-24T23:59:59Z,H,DISCONTINUED,2013-12-24,NA,2013-10-25,2013-12-24,61,NA,NA,NA,NA,7,APPLICATION SITE PRURITUS,APPLICATION SITE PRURITUS,GENERAL DISORDERS AND ADMINISTRATION SITE CONDITIONS,NA,APPLICATION SITE ITCHING,NA,NA,HLT_0317,NA,HLGT_0338,NA,GENERAL DISORDERS AND ADMINISTRATION SITE CONDITIONS,NA,2013-11-23,2013-11-23,2013-11-23T00:00:00Z,NA,H,NA,NA,NA,NA,NA,30,30,NA,NA,NA,NA,Y,NA,N,N,N,N,N,N,MODERATE,MODERATE,2,PROBABLE,PROBABLE,NA,E08,NOT RECOVERED/NOT RESOLVED,N,N,2013-12-17,2013-11-06T00:00:00Z,NA,NA
CDISCPILOT01,01-703-1076,1076,703,USA,AE,2013-10-25,2013-12-24,2013-10-25,2013-12-24,2014-01-21,NA,NA,NA,NA,NA,NA,NA,NA,NA,NA,NA,NA,2013-10-17,-8,69,YEARS,>64,M,WHITE,White,NOT HISPANIC OR LATINO,Y,Xanomeline High Dose,Xan_Hi,Xanomeline High Dose,Xan_Hi,Xanomeline High Dose,Xanomeline High Dose,2013-10-25,2013-10-25T00:00:00Z,H,2013-12-24,2013-12-24T23:59:59Z,H,DISCONTINUED,2013-12-24,NA,2013-10-25,2013-12-24,61,NA,NA,NA,NA,4,APPLICATION SITE PRURITUS,APPLICATION SITE PRURITUS,GENERAL DISORDERS AND ADMINISTRATION SITE CONDITIONS,NA,APPLICATION SITE ITCHING,NA,NA,HLT_0317,NA,HLGT_0338,NA,GENERAL DISORDERS AND ADMINISTRATION SITE CONDITIONS,NA,2013-11-23,2013-11-23,2013-11-23T00:00:00Z,NA,H,NA,NA,NA,NA,NA,30,30,NA,NA,NA,NA,Y,NA,N,N,N,N,N,N,MILD,MILD,1,PROBABLE,PROBABLE,NA,E08,NOT RECOVERED/NOT RESOLVED,N,N,2013-12-04,2013-11-06T00:00:00Z,NA,NA
CDISCPILOT01,01-703-1076,1076,703,USA,AE,2013-10-25,2013-12-24,2013-10-25,2013-12-24,2014-01-21,NA,NA,NA,NA,NA,NA,NA,NA,NA,NA,NA,NA,2013-10-17,-8,69,YEARS,>64,M,WHITE,White,NOT HISPANIC OR LATINO,Y,Xanomeline High Dose,Xan_Hi,Xanomeline High Dose,Xan_Hi,Xanomeline High Dose,Xanomeline High Dose,2013-10-25,2013-10-25T00:00:00Z,H,2013-12-24,2013-12-24T23:59:59Z,H,DISCONTINUED,2013-12-24,NA,2013-10-25,2013-12-24,61,NA,NA,NA,NA,5,APPLICATION SITE DERMATITIS,APPLICATION SITE DERMATITIS,GENERAL DISORDERS AND ADMINISTRATION SITE CONDITIONS,NA,APPLICATION SITE RASH,NA,NA,HLT_0343,NA,HLGT_0241,NA,GENERAL DISORDERS AND ADMINISTRATION SITE CONDITIONS,NA,2013-11-23,2013-11-23,2013-11-23T00:00:00Z,NA,H,NA,NA,NA,NA,NA,30,30,NA,NA,NA,NA,Y,NA,N,N,N,N,N,N,MILD,MILD,1,PROBABLE,PROBABLE,NA,E09,NOT RECOVERED/NOT RESOLVED,N,N,2013-12-04,2013-11-06T00:00:00Z,NA,NA
CDISCPILOT01,01-703-1076,1076,703,USA,AE,2013-10-25,2013-12-24,2013-10-25,2013-12-24,2014-01-21,NA,NA,NA,NA,NA,NA,NA,NA,NA,NA,NA,NA,2013-10-17,-8,69,YEARS,>64,M,WHITE,White,NOT HISPANIC OR LATINO,Y,Xanomeline High Dose,Xan_Hi,Xanomeline High Dose,Xan_Hi,Xanomeline High Dose,Xanomeline High Dose,2013-10-25,2013-10-25T00:00:00Z,H,2013-12-24,2013-12-24T23:59:59Z,H,DISCONTINUED,2013-12-24,NA,2013-10-25,2013-12-24,61,NA,NA,NA,NA,6,HYPERHIDROSIS,HYPERHIDROSIS,SKIN AND SUBCUTANEOUS TISSUE DISORDERS,NA,SWEATING,NA,NA,HLT_0587,NA,HLGT_0005,NA,SKIN AND SUBCUTANEOUS TISSUE DISORDERS,NA,2013-11-25,2013-11-25,2013-11-25T00:00:00Z,NA,H,NA,NA,NA,NA,NA,32,32,NA,NA,NA,NA,Y,NA,N,N,N,N,N,N,MILD,MILD,1,POSSIBLE,POSSIBLE,NA,E07,NOT RECOVERED/NOT RESOLVED,N,N,2013-12-04,2013-11-06T00:00:00Z,NA,NA
CDISCPILOT01,01-703-1086,1086,703,USA,AE,2012-09-02,2012-12-24,2012-09-02,2012-12-04,2013-03-26,NA,2013-03-26,NA,NA,NA,NA,NA,NA,NA,NA,NA,NA,2012-08-22,-11,71,YEARS,>64,M,WHITE,White,NOT HISPANIC OR LATINO,Y,Xanomeline Low Dose,Xan_Lo,Xanomeline Low Dose,Xan_Lo,Xanomeline Low Dose,Xanomeline Low Dose,2012-09-02,2012-09-02T00:00:00Z,H,2012-12-04,2012-12-04T23:59:59Z,H,DISCONTINUED,2012-12-24,NA,2012-09-02,2013-01-02,94,NA,NA,NA,NA,3,APPLICATION SITE IRRITATION,APPLICATION SITE IRRITATION,GENERAL DISORDERS AND ADMINISTRATION SITE CONDITIONS,NA,APPLICATION SITE IRRITATION,NA,NA,HLT_0061,NA,HLGT_0346,NA,GENERAL DISORDERS AND ADMINISTRATION SITE CONDITIONS,NA,2012-09-13,2012-09-13,2012-09-13T00:00:00Z,NA,H,2013-01-02,2013-01-02,2013-01-02T23:59:59Z,NA,H,12,12,123,123,112,days,Y,Y,N,N,N,N,N,N,SEVERE,SEVERE,3,PROBABLE,PROBABLE,NA,E01,NOT RECOVERED/NOT RESOLVED,N,N,2012-10-13,2012-09-13T00:00:00Z,54,mg
CDISCPILOT01,01-703-1086,1086,703,USA,AE,2012-09-02,2012-12-24,2012-09-02,2012-12-04,2013-03-26,NA,2013-03-26,NA,NA,NA,NA,NA,NA,NA,NA,NA,NA,2012-08-22,-11,71,YEARS,>64,M,WHITE,White,NOT HISPANIC OR LATINO,Y,Xanomeline Low Dose,Xan_Lo,Xanomeline Low Dose,Xan_Lo,Xanomeline Low Dose,Xanomeline Low Dose,2012-09-02,2012-09-02T00:00:00Z,H,2012-12-04,2012-12-04T23:59:59Z,H,DISCONTINUED,2012-12-24,NA,2012-09-02,2013-01-02,94,NA,NA,NA,NA,2,APPLICATION SITE IRRITATION,APPLICATION SITE IRRITATION,GENERAL DISORDERS AND ADMINISTRATION SITE CONDITIONS,NA,APPLICATION SITE IRRITATION,NA,NA,HLT_0061,NA,HLGT_0346,NA,GENERAL DISORDERS AND ADMINISTRATION SITE CONDITIONS,NA,2012-09-13,2012-09-13,2012-09-13T00:00:00Z,NA,H,2013-01-02,2013-01-02,2013-01-02T23:59:59Z,NA,H,12,12,123,123,112,days,Y,NA,N,N,N,N,N,N,MODERATE,MODERATE,2,PROBABLE,PROBABLE,NA,E01,NOT RECOVERED/NOT RESOLVED,N,N,2012-09-30,2012-09-13T00:00:00Z,54,mg
CDISCPILOT01,01-703-1086,1086,703,USA,AE,2012-09-02,2012-12-24,2012-09-02,2012-12-04,2013-03-26,NA,2013-03-26,NA,NA,NA,NA,NA,NA,NA,NA,NA,NA,2012-08-22,-11,71,YEARS,>64,M,WHITE,White,NOT HISPANIC OR LATINO,Y,Xanomeline Low Dose,Xan_Lo,Xanomeline Low Dose,Xan_Lo,Xanomeline Low Dose,Xanomeline Low Dose,2012-09-02,2012-09-02T00:00:00Z,H,2012-12-04,2012-12-04T23:59:59Z,H,DISCONTINUED,2012-12-24,NA,2012-09-02,2013-01-02,94,NA,NA,NA,NA,1,APPLICATION SITE IRRITATION,APPLICATION SITE IRRITATION,GENERAL DISORDERS AND ADMINISTRATION SITE CONDITIONS,NA,APPLICATION SITE IRRITATION,NA,NA,HLT_0061,NA,HLGT_0346,NA,GENERAL DISORDERS AND ADMINISTRATION SITE CONDITIONS,NA,2012-09-13,2012-09-13,2012-09-13T00:00:00Z,NA,H,2013-01-02,2013-01-02,2013-01-02T23:59:59Z,NA,H,12,12,123,123,112,days,Y,NA,N,N,N,N,N,N,MILD,MILD,1,PROBABLE,PROBABLE,NA,E01,NOT RECOVERED/NOT RESOLVED,N,N,2012-09-16,2012-09-13T00:00:00Z,54,mg
CDISCPILOT01,01-703-1086,1086,703,USA,AE,2012-09-02,2012-12-24,2012-09-02,2012-12-04,2013-03-26,NA,2013-03-26,NA,NA,NA,NA,NA,NA,NA,NA,NA,NA,2012-08-22,-11,71,YEARS,>64,M,WHITE,White,NOT HISPANIC OR LATINO,Y,Xanomeline Low Dose,Xan_Lo,Xanomeline Low Dose,Xan_Lo,Xanomeline Low Dose,Xanomeline Low Dose,2012-09-02,2012-09-02T00:00:00Z,H,2012-12-04,2012-12-04T23:59:59Z,H,DISCONTINUED,2012-12-24,NA,2012-09-02,2013-01-02,94,NA,NA,NA,NA,6,APPLICATION SITE IRRITATION,APPLICATION SITE IRRITATION,GENERAL DISORDERS AND ADMINISTRATION SITE CONDITIONS,NA,APPLICATION SITE IRRITATION,NA,NA,HLT_0061,NA,HLGT_0346,NA,GENERAL DISORDERS AND ADMINISTRATION SITE CONDITIONS,NA,2012-09-13,2012-09-13,2012-09-13T00:00:00Z,NA,H,2013-01-02,2013-01-02,2013-01-02T23:59:59Z,NA,H,12,12,123,123,112,days,Y,NA,N,N,N,N,N,N,MILD,MILD,1,PROBABLE,PROBABLE,NA,E01,RECOVERED/RESOLVED,N,N,2013-03-26,2012-09-13T00:00:00Z,54,mg
CDISCPILOT01,01-703-1086,1086,703,USA,AE,2012-09-02,2012-12-24,2012-09-02,2012-12-04,2013-03-26,NA,2013-03-26,NA,NA,NA,NA,NA,NA,NA,NA,NA,NA,2012-08-22,-11,71,YEARS,>64,M,WHITE,White,NOT HISPANIC OR LATINO,Y,Xanomeline Low Dose,Xan_Lo,Xanomeline Low Dose,Xan_Lo,Xanomeline Low Dose,Xanomeline Low Dose,2012-09-02,2012-09-02T00:00:00Z,H,2012-12-04,2012-12-04T23:59:59Z,H,DISCONTINUED,2012-12-24,NA,2012-09-02,2013-01-02,94,NA,NA,NA,NA,4,CHILLS,CHILLS,GENERAL DISORDERS AND ADMINISTRATION SITE CONDITIONS,NA,CHILLS,NA,NA,HLT_0586,NA,HLGT_0161,NA,GENERAL DISORDERS AND ADMINISTRATION SITE CONDITIONS,NA,2012-10-09,2012-10-09,2012-10-09T00:00:00Z,NA,H,2012-10-15,2012-10-15,2012-10-15T23:59:59Z,NA,H,38,38,44,44,7,days,Y,NA,N,N,N,N,N,N,MILD,MILD,1,POSSIBLE,POSSIBLE,NA,E02,NOT RECOVERED/NOT RESOLVED,N,N,2012-10-13,2012-10-09T00:00:00Z,54,mg
CDISCPILOT01,01-703-1086,1086,703,USA,AE,2012-09-02,2012-12-24,2012-09-02,2012-12-04,2013-03-26,NA,2013-03-26,NA,NA,NA,NA,NA,NA,NA,NA,NA,NA,2012-08-22,-11,71,YEARS,>64,M,WHITE,White,NOT HISPANIC OR LATINO,Y,Xanomeline Low Dose,Xan_Lo,Xanomeline Low Dose,Xan_Lo,Xanomeline Low Dose,Xanomeline Low Dose,2012-09-02,2012-09-02T00:00:00Z,H,2012-12-04,2012-12-04T23:59:59Z,H,DISCONTINUED,2012-12-24,NA,2012-09-02,2013-01-02,94,NA,NA,NA,NA,5,CHILLS,CHILLS,GENERAL DISORDERS AND ADMINISTRATION SITE CONDITIONS,NA,CHILLS,NA,NA,HLT_0586,NA,HLGT_0161,NA,GENERAL DISORDERS AND ADMINISTRATION SITE CONDITIONS,NA,2012-10-09,2012-10-09,2012-10-09T00:00:00Z,NA,H,2012-10-15,2012-10-15,2012-10-15T23:59:59Z,NA,H,38,38,44,44,7,days,Y,NA,N,N,N,N,N,N,MILD,MILD,1,POSSIBLE,POSSIBLE,NA,E02,RECOVERED/RESOLVED,N,N,2012-10-27,2012-10-09T00:00:00Z,54,mg
CDISCPILOT01,01-703-1100,1100,703,USA,AE,2013-03-13,2013-09-14,2013-03-13,2013-09-14,2013-09-14T15:00,NA,NA,NA,NA,NA,NA,NA,NA,NA,NA,NA,NA,2013-02-28,-13,84,YEARS,>64,F,WHITE,White,NOT HISPANIC OR LATINO,Y,Placebo,Pbo,Placebo,Pbo,Placebo,Placebo,2013-03-13,2013-03-13T00:00:00Z,H,2013-09-14,2013-09-14T23:59:59Z,H,COMPLETED,2013-09-14,NA,2013-03-13,2013-09-14,186,NA,NA,NA,NA,1,APPLICATION SITE IRRITATION,APPLICATION SITE IRRITATION,GENERAL DISORDERS AND ADMINISTRATION SITE CONDITIONS,NA,APPLICATION SITE IRRITATION,NA,NA,HLT_0061,NA,HLGT_0346,NA,GENERAL DISORDERS AND ADMINISTRATION SITE CONDITIONS,NA,2013-04-05,2013-04-05,2013-04-05T00:00:00Z,NA,H,2013-04-16,2013-04-16,2013-04-16T23:59:59Z,NA,H,24,24,35,35,12,days,Y,Y,N,N,N,N,N,N,MODERATE,MODERATE,2,PROBABLE,PROBABLE,NA,E04,NOT RECOVERED/NOT RESOLVED,N,N,2013-04-12,2013-04-05T00:00:00Z,0,mg
CDISCPILOT01,01-703-1100,1100,703,USA,AE,2013-03-13,2013-09-14,2013-03-13,2013-09-14,2013-09-14T15:00,NA,NA,NA,NA,NA,NA,NA,NA,NA,NA,NA,NA,2013-02-28,-13,84,YEARS,>64,F,WHITE,White,NOT HISPANIC OR LATINO,Y,Placebo,Pbo,Placebo,Pbo,Placebo,Placebo,2013-03-13,2013-03-13T00:00:00Z,H,2013-09-14,2013-09-14T23:59:59Z,H,COMPLETED,2013-09-14,NA,2013-03-13,2013-09-14,186,NA,NA,NA,NA,4,CATARACT OPERATION,CATARACT OPERATION,SURGICAL AND MEDICAL PROCEDURES,NA,CATARACT EXTRACTION,NA,NA,HLT_0432,NA,HLGT_0058,NA,SURGICAL AND MEDICAL PROCEDURES,NA,2013-04-25,2013-04-25,2013-04-25T00:00:00Z,NA,H,2013-04-25,2013-04-25,2013-04-25T23:59:59Z,NA,H,44,44,44,44,1,days,Y,NA,N,N,N,N,N,N,MODERATE,MODERATE,2,NONE,NONE,NA,E06,RECOVERED/RESOLVED,N,N,2013-05-08,2013-04-25T00:00:00Z,0,mg
CDISCPILOT01,01-703-1100,1100,703,USA,AE,2013-03-13,2013-09-14,2013-03-13,2013-09-14,2013-09-14T15:00,NA,NA,NA,NA,NA,NA,NA,NA,NA,NA,NA,NA,2013-02-28,-13,84,YEARS,>64,F,WHITE,White,NOT HISPANIC OR LATINO,Y,Placebo,Pbo,Placebo,Pbo,Placebo,Placebo,2013-03-13,2013-03-13T00:00:00Z,H,2013-09-14,2013-09-14T23:59:59Z,H,COMPLETED,2013-09-14,NA,2013-03-13,2013-09-14,186,NA,NA,NA,NA,5,UPPER RESPIRATORY TRACT INFECTION,UPPER RESPIRATORY TRACT INFECTION,INFECTIONS AND INFESTATIONS,NA,UPPER RESPIRATORY INFECTION,NA,NA,HLT_0520,NA,HLGT_0489,NA,INFECTIONS AND INFESTATIONS,NA,2013-05-27,2013-05-27,2013-05-27T00:00:00Z,NA,H,2013-06-03,2013-06-03,2013-06-03T23:59:59Z,NA,H,76,76,83,83,8,days,Y,NA,N,N,N,N,N,N,MODERATE,MODERATE,2,REMOTE,REMOTE,NA,E08,RECOVERED/RESOLVED,N,N,2013-06-05,2013-05-27T00:00:00Z,0,mg
