STUDYID,USUBJID,SUBJID,SITEID,COUNTRY,RFSTDTC,RFENDTC,RFXSTDTC,RFXENDTC,RFPENDTC,SCRFDT,FRVDT,DTHDTC,DTHADY,DTHFL,LDDTHELD,LDDTHGR1,DTH30FL,DTHA30FL,DTHDOM,DTHB30FL,REGION1,DMDTC,DMDY,AGE,AGEU,AGEGR1,SEX,RACE,RACEGR1,ETHNIC,SAFFL,ARM,ARMCD,ACTARM,ACTARMCD,TRT01P,TRT01A,TRTSDT,TRTSDTM,TRTSTMF,TRTEDT,TRTEDTM,TRTETMF,EOSSTT,EOSDT,RFICDTC,RANDDT,LSTALVDT,TRTDURD,DTHDT,DTHDTF,DTHCAUS,DTHCGR1,BRTHDTC
CDISCPILOT01,01-701-1015,1015,701,USA,2014-01-02,2014-07-02,2014-01-02,2014-07-02,2014-07-02T11:45,NA,NA,NA,NA,NA,NA,NA,NA,NA,NA,NA,NA,2013-12-26,-7,63,YEARS,18-64,F,WHITE,White,HISPANIC OR LATINO,Y,Placebo,Pbo,Placebo,Pbo,Placebo,Placebo,2014-01-02,2014-01-02T00:00:00Z,H,2014-07-02,2014-07-02T23:59:59Z,H,COMPLETED,2014-07-02,NA,2014-01-02,2014-07-02,182,NA,NA,NA,NA,1950-12-26
CDISCPILOT01,01-701-1023,1023,701,USA,2012-08-05,2012-09-02,2012-08-05,2012-09-01,2013-02-18,NA,2013-02-18,NA,NA,NA,NA,NA,NA,NA,NA,NA,NA,2012-07-22,-14,64,YEARS,18-64,M,WHITE,White,HISPANIC OR LATINO,Y,Placebo,Pbo,Placebo,Pbo,Placebo,Placebo,2012-08-05,2012-08-05T00:00:00Z,H,2012-09-01,2012-09-01T23:59:59Z,H,DISCONTINUED,2012-09-02,NA,2012-08-05,2012-09-02,28,NA,NA,NA,NA,1948-07-22
CDISCPILOT01,01-701-1028,1028,701,USA,2013-07-19,2014-01-14,2013-07-19,2014-01-14,2014-01-14T11:10,NA,NA,NA,NA,NA,NA,NA,NA,NA,NA,NA,NA,2013-07-11,-8,71,YEARS,>64,M,WHITE,White,NOT HISPANIC OR LATINO,Y,Xanomeline High Dose,Xan_Hi,Xanomeline High Dose,Xan_Hi,Xanomeline High Dose,Xanomeline High Dose,2013-07-19,2013-07-19T00:00:00Z,H,2014-01-14,2014-01-14T23:59:59Z,H,COMPLETED,2014-01-14,NA,2013-07-19,2014-01-14,180,NA,NA,NA,NA,1942-07-11
CDISCPILOT01,01-701-1033,1033,701,USA,2014-03-18,2014-04-14,2014-03-18,2014-03-31,2014-09-15,NA,2014-09-15,NA,NA,NA,NA,NA,NA,NA,NA,NA,NA,2014-03-10,-8,74,YEARS,>64,M,WHITE,White,NOT HISPANIC OR LATINO,Y,Xanomeline Low Dose,Xan_Lo,Xanomeline Low Dose,Xan_Lo,Xanomeline Low Dose,Xanomeline Low Dose,2014-03-18,2014-03-18T00:00:00Z,H,2014-03-31,2014-03-31T23:59:59Z,H,DISCONTINUED,2014-04-14,NA,2014-03-18,2014-04-14,14,NA,NA,NA,NA,1940-03-10
CDISCPILOT01,01-701-1034,1034,701,USA,2014-07-01,2014-12-30,2014-07-01,2014-12-30,2014-12-30T09:50,NA,NA,NA,NA,NA,NA,NA,NA,NA,NA,NA,NA,2014-06-24,-7,77,YEARS,>64,F,WHITE,White,NOT HISPANIC OR LATINO,Y,Xanomeline High Dose,Xan_Hi,Xanomeline High Dose,Xan_Hi,Xanomeline High Dose,Xanomeline High Dose,2014-07-01,2014-07-01T00:00:00Z,H,2014-12-30,2014-12-30T23:59:59Z,H,COMPLETED,2014-12-30,NA,2014-07-01,2014-12-30,183,NA,NA,NA,NA,1937-06-24
CDISCPILOT01,01-701-1047,1047,701,USA,2013-02-12,2013-03-29,2013-02-12,2013-03-09,2013-07-28,NA,2013-07-28,NA,NA,NA,NA,NA,NA,NA,NA,NA,NA,2013-01-22,-21,85,YEARS,>64,F,WHITE,White,NOT HISPANIC OR LATINO,Y,Placebo,Pbo,Placebo,Pbo,Placebo,Placebo,2013-02-12,2013-02-12T00:00:00Z,H,2013-03-09,2013-03-09T23:59:59Z,H,DISCONTINUED,2013-03-29,NA,2013-02-12,2013-04-07,26,NA,NA,NA,NA,1928-01-22
CDISCPILOT01,01-701-1057,1057,701,USA,NA,NA,NA,NA,2013-12-27,2013-12-20,NA,NA,NA,NA,NA,NA,NA,NA,NA,NA,NA,2013-12-20,NA,59,YEARS,18-64,F,WHITE,White,HISPANIC OR LATINO,N,Screen Failure,Scrnfail,Screen Failure,Scrnfail,Screen Failure,Screen Failure,NA,NA,NA,NA,NA,NA,NA,NA,NA,NA,NA,NA,NA,NA,NA,NA,1954-12-20
CDISCPILOT01,01-701-1097,1097,701,USA,2014-01-01,2014-07-09,2014-01-01,2014-07-09,2014-07-09T09:39,NA,NA,NA,NA,NA,NA,NA,NA,NA,NA,NA,NA,2013-12-23,-9,68,YEARS,>64,M,WHITE,White,NOT HISPANIC OR LATINO,Y,Xanomeline Low Dose,Xan_Lo,Xanomeline Low Dose,Xan_Lo,Xanomeline Low Dose,Xanomeline Low Dose,2014-01-01,2014-01-01T00:00:00Z,H,2014-07-09,2014-07-09T23:59:59Z,H,COMPLETED,2014-07-09,NA,2014-01-01,2014-07-09,190,NA,NA,NA,NA,1945-12-23
CDISCPILOT01,01-701-1111,1111,701,USA,2012-09-07,2012-09-17,2012-09-07,2012-09-16,2013-02-22,NA,2013-02-22,NA,NA,NA,NA,NA,NA,NA,NA,NA,NA,2012-08-25,-13,81,YEARS,>64,F,WHITE,White,NOT HISPANIC OR LATINO,Y,Xanomeline Low Dose,Xan_Lo,Xanomeline Low Dose,Xan_Lo,Xanomeline Low Dose,Xanomeline Low Dose,2012-09-07,2012-09-07T00:00:00Z,H,2012-09-16,2012-09-16T23:59:59Z,H,DISCONTINUED,2012-09-17,NA,2012-09-07,2012-09-17,10,NA,NA,NA,NA,1931-08-25
CDISCPILOT01,01-701-1115,1115,701,USA,2012-11-30,2013-01-23,2012-11-30,2013-01-23,2013-05-20,NA,2013-05-20,NA,NA,NA,NA,NA,NA,NA,NA,NA,NA,2012-11-23,-7,84,YEARS,>64,M,WHITE,White,NOT HISPANIC OR LATINO,Y,Xanomeline Low Dose,Xan_Lo,Xanomeline Low Dose,Xan_Lo,Xanomeline Low Dose,Xanomeline Low Dose,2012-11-30,2012-11-30T00:00:00Z,H,2013-01-23,2013-01-23T23:59:59Z,H,DISCONTINUED,2013-01-23,NA,2012-11-30,2013-01-23,55,NA,NA,NA,NA,1928-11-23
CDISCPILOT01,01-701-1118,1118,701,USA,2014-03-12,2014-09-09,2014-03-12,2014-09-09,2014-09-09T13:28,NA,NA,NA,NA,NA,NA,NA,NA,NA,NA,NA,NA,2014-02-27,-13,52,YEARS,18-64,M,WHITE,White,NOT HISPANIC OR LATINO,Y,Placebo,Pbo,Placebo,Pbo,Placebo,Placebo,2014-03-12,2014-03-12T00:00:00Z,H,2014-09-09,2014-09-09T23:59:59Z,H,COMPLETED,2014-09-09,NA,2014-03-12,2014-09-09,182,NA,NA,NA,NA,1962-02-27
CDISCPILOT01,01-701-1130,1130,701,USA,2014-02-15,2014-08-16,2014-02-15,2014-08-16,2014-08-16T13:10,NA,NA,NA,NA,NA,NA,NA,NA,NA,NA,NA,NA,2014-02-09,-6,84,YEARS,>64,M,WHITE,White,NOT HISPANIC OR LATINO,Y,Placebo,Pbo,Placebo,Pbo,Placebo,Placebo,2014-02-15,2014-02-15T00:00:00Z,H,2014-08-16,2014-08-16T23:59:59Z,H,COMPLETED,2014-08-16,NA,2014-02-15,2014-08-16,183,NA,NA,NA,NA,1930-02-09
CDISCPILOT01,01-701-1133,1133,701,USA,2012-10-28,2013-04-29,2012-10-28,2013-04-28,2013-04-29T10:13,NA,NA,NA,NA,NA,NA,NA,NA,NA,NA,NA,NA,2012-10-23,-5,81,YEARS,>64,F,WHITE,White,NOT HISPANIC OR LATINO,Y,Xanomeline High Dose,Xan_Hi,Xanomeline High Dose,Xan_Hi,Xanomeline High Dose,Xanomeline High Dose,2012-10-28,2012-10-28T00:00:00Z,H,2013-04-28,2013-04-28T23:59:59Z,H,COMPLETED,2013-04-29,NA,2012-10-28,2013-04-29,183,NA,NA,NA,NA,1931-10-23
CDISCPILOT01,01-701-1145,1145,701,USA,NA,NA,NA,NA,2013-09-19,2013-09-05,NA,NA,NA,NA,NA,NA,NA,NA,NA,NA,NA,2013-09-05,NA,57,YEARS,18-64,F,WHITE,White,NOT HISPANIC OR LATINO,N,Screen Failure,Scrnfail,Screen Failure,Scrnfail,Screen Failure,Screen Failure,NA,NA,NA,NA,NA,NA,NA,NA,NA,NA,NA,NA,NA,NA,NA,NA,1956-09-05
CDISCPILOT01,01-701-1146,1146,701,USA,2013-05-20,2013-06-30,2013-05-20,2013-06-26,2013-07-15,NA,NA,NA,NA,NA,NA,NA,NA,NA,NA,NA,NA,2013-05-07,-13,75,YEARS,>64,F,WHITE,White,NOT HISPANIC OR LATINO,Y,Xanomeline High Dose,Xan_Hi,Xanomeline High Dose,Xan_Hi,Xanomeline High Dose,Xanomeline High Dose,2013-05-20,2013-05-20T00:00:00Z,H,2013-06-26,2013-06-26T23:59:59Z,H,DISCONTINUED,2013-06-30,NA,2013-05-20,2013-06-30,38,NA,NA,NA,NA,1938-05-07
CDISCPILOT01,01-701-1148,1148,701,USA,2013-08-23,2014-02-20,2013-08-23,2014-02-20,2014-02-20T15:07,NA,NA,NA,NA,NA,NA,NA,NA,NA,NA,NA,NA,2013-08-14,-9,57,YEARS,18-64,M,WHITE,White,NOT HISPANIC OR LATINO,Y,Xanomeline High Dose,Xan_Hi,Xanomeline High Dose,Xan_Hi,Xanomeline High Dose,Xanomeline High Dose,2013-08-23,2013-08-23T00:00:00Z,H,2014-02-20,2014-02-20T23:59:59Z,H,COMPLETED,2014-02-20,NA,2013-08-23,2014-02-20,182,NA,NA,NA,NA,1956-08-14
CDISCPILOT01,01-701-1153,1153,701,USA,2013-09-23,2014-04-01,2013-09-23,2014-03-16,2014-04-01T14:25,NA,NA,NA,NA,NA,NA,NA,NA,NA,NA,NA,NA,2013-09-06,-17,79,YEARS,>64,F,WHITE,White,NOT HISPANIC OR LATINO,Y,Placebo,Pbo,Placebo,Pbo,Placebo,Placebo,2013-09-23,2013-09-23T00:00:00Z,H,2014-03-16,2014-03-16T23:59:59Z,H,COMPLETED,2014-04-01,NA,2013-09-23,2014-04-01,175,NA,NA,NA,NA,1934-09-06
CDISCPILOT01,01-701-1162,1162,701,USA,NA,NA,NA,NA,2013-04-18,2013-04-18,NA,NA,NA,NA,NA,NA,NA,NA,NA,NA,NA,2013-04-18,NA,82,YEARS,>64,F,WHITE,White,NOT HISPANIC OR LATINO,N,Screen Failure,Scrnfail,Screen Failure,Scrnfail,Screen Failure,Screen Failure,NA,NA,NA,NA,NA,NA,NA,NA,NA,NA,NA,NA,NA,NA,NA,NA,1931-04-18
CDISCPILOT01,01-701-1176,1176,701,USA,NA,NA,NA,NA,2012-09-30,2012-09-30,NA,NA,NA,NA,NA,NA,NA,NA,NA,NA,NA,2012-09-30,NA,62,YEARS,18-64,F,AMERICAN INDIAN OR ALASKA NATIVE,Non-white,NOT HISPANIC OR LATINO,N,Screen Failure,Scrnfail,Screen Failure,Scrnfail,Screen Failure,Screen Failure,NA,NA,NA,NA,NA,NA,NA,NA,NA,NA,NA,NA,NA,NA,NA,NA,1950-09-30
CDISCPILOT01,01-701-1180,1180,701,USA,2013-02-12,2013-03-23,2013-02-12,2013-03-18,2013-04-07,NA,NA,NA,NA,NA,NA,NA,NA,NA,NA,NA,NA,2013-01-28,-15,56,YEARS,18-64,M,WHITE,White,NOT HISPANIC OR LATINO,Y,Xanomeline High Dose,Xan_Hi,Xanomeline High Dose,Xan_Hi,Xanomeline High Dose,Xanomeline High Dose,2013-02-12,2013-02-12T00:00:00Z,H,2013-03-18,2013-03-18T23:59:59Z,H,DISCONTINUED,2013-03-23,NA,2013-02-12,2013-03-23,35,NA,NA,NA,NA,1957-01-28
CDISCPILOT01,01-701-1181,1181,701,USA,2013-12-05,2013-12-12,2013-12-05,2013-12-09,2014-05-23,NA,2014-05-23,NA,NA,NA,NA,NA,NA,NA,NA,NA,NA,2013-11-26,-9,79,YEARS,>64,F,WHITE,White,NOT HISPANIC OR LATINO,Y,Xanomeline High Dose,Xan_Hi,Xanomeline Low Dose,Xan_Lo,Xanomeline High Dose,Xanomeline Low Dose,2013-12-05,2013-12-05T00:00:00Z,H,2013-12-09,2013-12-09T23:59:59Z,H,DISCONTINUED,2013-12-12,NA,2013-12-05,2013-12-12,5,NA,NA,NA,NA,1934-11-26
CDISCPILOT01,01-701-1188,1188,701,USA,2013-02-15,2013-03-25,2013-02-15,2013-03-24,2013-08-04,NA,2013-08-04,NA,NA,NA,NA,NA,NA,NA,NA,NA,NA,2013-02-03,-12,71,YEARS,>64,M,WHITE,White,NOT HISPANIC OR LATINO,Y,Xanomeline Low Dose,Xan_Lo,Xanomeline Low Dose,Xan_Lo,Xanomeline Low Dose,Xanomeline Low Dose,2013-02-15,2013-02-15T00:00:00Z,H,2013-03-24,2013-03-24T23:59:59Z,H,DISCONTINUED,2013-03-25,NA,2013-02-15,2013-03-25,38,NA,NA,NA,NA,1942-02-03
CDISCPILOT01,01-701-1192,1192,701,USA,2012-07-22,2013-01-20,2012-07-22,2013-01-20,2013-01-20T15:47,NA,NA,NA,NA,NA,NA,NA,NA,NA,NA,NA,NA,2012-07-08,-14,80,YEARS,>64,F,WHITE,White,NOT HISPANIC OR LATINO,Y,Xanomeline Low Dose,Xan_Lo,Xanomeline Low Dose,Xan_Lo,Xanomeline Low Dose,Xanomeline Low Dose,2012-07-22,2012-07-22T00:00:00Z,H,2013-01-20,2013-01-20T23:59:59Z,H,COMPLETED,2013-01-20,NA,2012-07-22,2013-01-20,183,NA,NA,NA,NA,1932-07-08
CDISCPILOT01,01-701-1203,1203,701,USA,2013-02-02,2013-08-03,2013-02-02,2013-08-03,2013-08-03T10:10,NA,NA,NA,NA,NA,NA,NA,NA,NA,NA,NA,NA,2013-01-25,-8,81,YEARS,>64,F,BLACK OR AFRICAN AMERICAN,Non-white,NOT HISPANIC OR LATINO,Y,Placebo,Pbo,Placebo,Pbo,Placebo,Placebo,2013-02-02,2013-02-02T00:00:00Z,H,2013-08-03,2013-08-03T23:59:59Z,H,COMPLETED,2013-08-03,NA,2013-02-02,2013-08-03,183,NA,NA,NA,NA,1932-01-25
CDISCPILOT01,01-701-1211,1211,701,USA,2012-11-15,2013-01-14,2012-11-15,2013-01-12,2013-01-14,NA,NA,2013-01-14,61,Y,2,<= 30,Y,NA,AE,NA,NA,2012-10-30,-16,76,YEARS,>64,F,WHITE,White,NOT HISPANIC OR LATINO,Y,Xanomeline Low Dose,Xan_Lo,Xanomeline Low Dose,Xan_Lo,Xanomeline Low Dose,Xanomeline Low Dose,2012-11-15,2012-11-15T00:00:00Z,H,2013-01-12,2013-01-12T23:59:59Z,H,DISCONTINUED,2013-01-14,NA,2012-11-15,2013-01-14,59,2013-01-14,NA,SUDDEN DEATH,ADVERSE EVENT,1936-10-30
CDISCPILOT01,01-701-1234,1234,701,USA,2013-03-30,2013-09-22,2013-03-30,2013-09-22,2013-09-22T09:25,NA,NA,NA,NA,NA,NA,NA,NA,NA,NA,NA,NA,2013-03-20,-10,69,YEARS,>64,M,WHITE,White,NOT HISPANIC OR LATINO,Y,Placebo,Pbo,Placebo,Pbo,Placebo,Placebo,2013-03-30,2013-03-30T00:00:00Z,H,2013-09-22,2013-09-22T23:59:59Z,H,COMPLETED,2013-09-22,NA,2013-03-30,2013-09-22,177,NA,NA,NA,NA,1944-03-20
CDISCPILOT01,01-701-1239,1239,701,USA,2014-01-11,2014-07-11,2014-01-11,2014-07-10,2014-07-11T15:40,NA,NA,NA,NA,NA,NA,NA,NA,NA,NA,NA,NA,2013-12-28,-14,56,YEARS,18-64,M,WHITE,White,HISPANIC OR LATINO,Y,Xanomeline High Dose,Xan_Hi,Xanomeline High Dose,Xan_Hi,Xanomeline High Dose,Xanomeline High Dose,2014-01-11,2014-01-11T00:00:00Z,H,2014-07-10,2014-07-10T23:59:59Z,H,COMPLETED,2014-07-11,NA,2014-01-11,2014-07-11,181,NA,NA,NA,NA,1957-12-28
CDISCPILOT01,01-701-1240,1240,701,USA,NA,NA,NA,NA,2013-09-24,2013-09-22,NA,NA,NA,NA,NA,NA,NA,NA,NA,NA,NA,2013-09-22,NA,57,YEARS,18-64,F,BLACK OR AFRICAN AMERICAN,Non-white,NOT HISPANIC OR LATINO,N,Screen Failure,Scrnfail,Screen Failure,Scrnfail,Screen Failure,Screen Failure,NA,NA,NA,NA,NA,NA,NA,NA,NA,NA,NA,NA,NA,NA,NA,NA,1956-09-22
CDISCPILOT01,01-701-1275,1275,701,USA,2014-02-07,2014-06-14,2014-02-07,2014-05-31,2014-06-14T12:35,NA,NA,NA,NA,NA,NA,NA,NA,NA,NA,NA,NA,2014-01-25,-13,61,YEARS,18-64,M,AMERICAN INDIAN OR ALASKA NATIVE,Non-white,NOT HISPANIC OR LATINO,Y,Xanomeline High Dose,Xan_Hi,Xanomeline High Dose,Xan_Hi,Xanomeline High Dose,Xanomeline High Dose,2014-02-07,2014-02-07T00:00:00Z,H,2014-05-31,2014-05-31T23:59:59Z,H,DISCONTINUED,2014-06-14,NA,2014-02-07,2014-06-14,114,NA,NA,NA,NA,1953-01-25
CDISCPILOT01,01-701-1287,1287,701,USA,2014-01-25,2014-07-26,2014-01-25,2014-07-26,2014-07-26T13:15,NA,NA,NA,NA,NA,NA,NA,NA,NA,NA,NA,NA,2014-01-17,-8,56,YEARS,18-64,F,WHITE,White,HISPANIC OR LATINO,Y,Xanomeline High Dose,Xan_Hi,Xanomeline High Dose,Xan_Hi,Xanomeline High Dose,Xanomeline High Dose,2014-01-25,2014-01-25T00:00:00Z,H,2014-07-26,2014-07-26T23:59:59Z,H,COMPLETED,2014-07-26,NA,2014-01-25,2014-07-26,183,NA,NA,NA,NA,1958-01-17
CDISCPILOT01,01-701-1294,1294,701,USA,2013-03-24,2013-06-14,2013-03-24,2013-06-14,2013-10-08,NA,2013-10-08,NA,NA,NA,NA,NA,NA,NA,NA,NA,NA,2013-03-17,-7,67,YEARS,>64,M,WHITE,White,NOT HISPANIC OR LATINO,Y,Xanomeline Low Dose,Xan_Lo,Xanomeline Low Dose,Xan_Lo,Xanomeline Low Dose,Xanomeline Low Dose,2013-03-24,2013-03-24T00:00:00Z,H,2013-06-14,2013-06-14T23:59:59Z,H,DISCONTINUED,2013-06-14,NA,2013-03-24,2013-06-14,83,NA,NA,NA,NA,1946-03-17
CDISCPILOT01,01-701-1302,1302,701,USA,2013-08-29,2013-11-05,2013-08-29,2013-11-05,2014-02-13,NA,2014-02-13,NA,NA,NA,NA,NA,NA,NA,NA,NA,NA,2013-08-20,-9,61,YEARS,18-64,M,WHITE,White,NOT HISPANIC OR LATINO,Y,Xanomeline High Dose,Xan_Hi,Xanomeline High Dose,Xan_Hi,Xanomeline High Dose,Xanomeline High Dose,2013-08-29,2013-08-29T00:00:00Z,H,2013-11-05,2013-11-05T23:59:59Z,H,DISCONTINUED,2013-11-05,NA,2013-08-29,2013-11-05,69,NA,NA,NA,NA,1952-08-20
CDISCPILOT01,01-701-1307,1307,701,USA,NA,NA,NA,NA,2014-01-02,2013-12-08,NA,NA,NA,NA,NA,NA,NA,NA,NA,NA,NA,2013-12-08,NA,80,YEARS,>64,F,WHITE,White,NOT HISPANIC OR LATINO,N,Screen Failure,Scrnfail,Screen Failure,Scrnfail,Screen Failure,Screen Failure,NA,NA,NA,NA,NA,NA,NA,NA,NA,NA,NA,NA,NA,NA,NA,NA,1933-12-08
CDISCPILOT01,01-701-1317,1317,701,USA,2014-05-22,2014-11-20,2014-05-22,2014-11-20,2014-11-20T11:54,NA,NA,NA,NA,NA,NA,NA,NA,NA,NA,NA,NA,2014-05-10,-12,68,YEARS,>64,M,WHITE,White,NOT HISPANIC OR LATINO,Y,Xanomeline Low Dose,Xan_Lo,Xanomeline Low Dose,Xan_Lo,Xanomeline Low Dose,Xanomeline Low Dose,2014-05-22,2014-05-22T00:00:00Z,H,2014-11-20,2014-11-20T23:59:59Z,H,COMPLETED,2014-11-20,NA,2014-05-22,2014-11-20,183,NA,NA,NA,NA,1946-05-10
CDISCPILOT01,01-701-1324,1324,701,USA,2012-10-02,2013-04-02,2012-10-02,2013-04-02,2013-04-02T11:35,NA,NA,NA,NA,NA,NA,NA,NA,NA,NA,NA,NA,2012-09-16,-16,79,YEARS,>64,M,WHITE,White,NOT HISPANIC OR LATINO,Y,Xanomeline Low Dose,Xan_Lo,Xanomeline Low Dose,Xan_Lo,Xanomeline Low Dose,Xanomeline Low Dose,2012-10-02,2012-10-02T00:00:00Z,H,2013-04-02,2013-04-02T23:59:59Z,H,COMPLETED,2013-04-02,NA,2012-10-02,2013-04-02,183,NA,NA,NA,NA,1933-09-16
CDISCPILOT01,01-701-1341,1341,701,USA,2013-01-05,2013-02-07,2013-01-05,2013-01-26,2013-02-21,NA,NA,NA,NA,NA,NA,NA,NA,NA,NA,NA,NA,2012-12-22,-14,51,YEARS,18-64,M,WHITE,White,NOT HISPANIC OR LATINO,Y,Xanomeline Low Dose,Xan_Lo,Xanomeline Low Dose,Xan_Lo,Xanomeline Low Dose,Xanomeline Low Dose,2013-01-05,2013-01-05T00:00:00Z,H,2013-01-26,2013-01-26T23:59:59Z,H,DISCONTINUED,2013-02-07,NA,2013-01-05,2013-02-07,22,NA,NA,NA,NA,1961-12-22
CDISCPILOT01,01-701-1345,1345,701,USA,2013-10-08,2014-03-18,2013-10-08,2014-03-18,2014-03-18T14:12,NA,NA,NA,NA,NA,NA,NA,NA,NA,NA,NA,NA,2013-10-01,-7,63,YEARS,18-64,F,WHITE,White,NOT HISPANIC OR LATINO,Y,Placebo,Pbo,Placebo,Pbo,Placebo,Placebo,2013-10-08,2013-10-08T00:00:00Z,H,2014-03-18,2014-03-18T23:59:59Z,H,DISCONTINUED,2014-03-18,NA,2013-10-08,2014-03-18,162,NA,NA,NA,NA,1950-10-01
CDISCPILOT01,01-701-1356,1356,701,USA,NA,NA,NA,NA,2014-05-28,2014-04-01,NA,NA,NA,NA,NA,NA,NA,NA,NA,NA,NA,2014-04-01,NA,54,YEARS,18-64,F,WHITE,White,HISPANIC OR LATINO,N,Screen Failure,Scrnfail,Screen Failure,Scrnfail,Screen Failure,Screen Failure,NA,NA,NA,NA,NA,NA,NA,NA,NA,NA,NA,NA,NA,NA,NA,NA,1960-04-01
CDISCPILOT01,01-701-1360,1360,701,USA,2013-07-31,2013-08-14,2013-07-31,2013-08-05,2014-02-11,NA,2014-02-11,NA,NA,NA,NA,NA,NA,NA,NA,NA,NA,2013-07-24,-7,67,YEARS,>64,M,WHITE,White,NOT HISPANIC OR LATINO,Y,Xanomeline High Dose,Xan_Hi,Xanomeline Low Dose,Xan_Lo,Xanomeline High Dose,Xanomeline Low Dose,2013-07-31,2013-07-31T00:00:00Z,H,2013-08-05,2013-08-05T23:59:59Z,H,DISCONTINUED,2013-08-14,NA,2013-07-31,2013-08-14,6,NA,NA,NA,NA,1946-07-24
CDISCPILOT01,01-701-1363,1363,701,USA,2013-05-30,2013-11-27,2013-05-30,2013-11-27,2013-11-27T10:00,NA,NA,NA,NA,NA,NA,NA,NA,NA,NA,NA,NA,2013-05-20,-10,81,YEARS,>64,F,BLACK OR AFRICAN AMERICAN,Non-white,NOT HISPANIC OR LATINO,Y,Placebo,Pbo,Placebo,Pbo,Placebo,Placebo,2013-05-30,2013-05-30T00:00:00Z,H,2013-11-27,2013-11-27T23:59:59Z,H,COMPLETED,2013-11-27,NA,2013-05-30,2013-11-27,182,NA,NA,NA,NA,1932-05-20
CDISCPILOT01,01-701-1369,1369,701,USA,NA,NA,NA,NA,2013-09-30,2013-09-18,NA,NA,NA,NA,NA,NA,NA,NA,NA,NA,NA,2013-09-18,NA,74,YEARS,>64,M,WHITE,White,NOT HISPANIC OR LATINO,N,Screen Failure,Scrnfail,Screen Failure,Scrnfail,Screen Failure,Screen Failure,NA,NA,NA,NA,NA,NA,NA,NA,NA,NA,NA,NA,NA,NA,NA,NA,1939-09-18
CDISCPILOT01,01-701-1383,1383,701,USA,2013-02-04,2013-08-06,2013-02-04,2013-08-06,2013-08-06T12:00,NA,NA,NA,NA,NA,NA,NA,NA,NA,NA,NA,NA,2013-01-22,-13,72,YEARS,>64,F,WHITE,White,NOT HISPANIC OR LATINO,Y,Xanomeline High Dose,Xan_Hi,Xanomeline High Dose,Xan_Hi,Xanomeline High Dose,Xanomeline High Dose,2013-02-04,2013-02-04T00:00:00Z,H,2013-08-06,2013-08-06T23:59:59Z,H,COMPLETED,2013-08-06,NA,2013-02-04,2013-08-06,184,NA,NA,NA,NA,1941-01-22
CDISCPILOT01,01-701-1386,1386,701,USA,NA,NA,NA,NA,2014-01-07,2013-12-28,NA,NA,NA,NA,NA,NA,NA,NA,NA,NA,NA,2013-12-28,NA,71,YEARS,>64,M,WHITE,White,NOT HISPANIC OR LATINO,N,Screen Failure,Scrnfail,Screen Failure,Scrnfail,Screen Failure,Screen Failure,NA,NA,NA,NA,NA,NA,NA,NA,NA,NA,NA,NA,NA,NA,NA,NA,1942-12-28
CDISCPILOT01,01-701-1387,1387,701,USA,2014-03-12,2014-03-25,2014-03-12,2014-03-25,2014-08-27,NA,2014-08-27,NA,NA,NA,NA,NA,NA,NA,NA,NA,NA,2014-02-23,-17,87,YEARS,>64,F,WHITE,White,NOT HISPANIC OR LATINO,Y,Placebo,Pbo,Placebo,Pbo,Placebo,Placebo,2014-03-12,2014-03-12T00:00:00Z,H,2014-03-25,2014-03-25T23:59:59Z,H,DISCONTINUED,2014-03-25,NA,2014-03-12,2014-03-25,14,NA,NA,NA,NA,1927-02-23
CDISCPILOT01,01-701-1392,1392,701,USA,2012-10-28,2013-04-28,2012-10-28,2013-04-28,2013-04-28T11:30,NA,NA,NA,NA,NA,NA,NA,NA,NA,NA,NA,NA,2012-10-17,-11,78,YEARS,>64,M,WHITE,White,NOT HISPANIC OR LATINO,Y,Placebo,Pbo,Placebo,Pbo,Placebo,Placebo,2012-10-28,2012-10-28T00:00:00Z,H,2013-04-28,2013-04-28T23:59:59Z,H,COMPLETED,2013-04-28,NA,2012-10-28,2013-04-28,183,NA,NA,NA,NA,1934-10-17
CDISCPILOT01,01-701-1411,1411,701,USA,NA,NA,NA,NA,2012-11-24,2012-11-14,NA,NA,NA,NA,NA,NA,NA,NA,NA,NA,NA,2012-11-14,NA,76,YEARS,>64,M,BLACK OR AFRICAN AMERICAN,Non-white,NOT HISPANIC OR LATINO,N,Screen Failure,Scrnfail,Screen Failure,Scrnfail,Screen Failure,Screen Failure,NA,NA,NA,NA,NA,NA,NA,NA,NA,NA,NA,NA,NA,NA,NA,NA,1936-11-14
CDISCPILOT01,01-701-1415,1415,701,USA,2013-09-23,2014-03-24,2013-09-23,2014-03-24,2014-03-24T12:34,NA,NA,NA,NA,NA,NA,NA,NA,NA,NA,NA,NA,2013-09-15,-8,85,YEARS,>64,M,WHITE,White,NOT HISPANIC OR LATINO,Y,Placebo,Pbo,Placebo,Pbo,Placebo,Placebo,2013-09-23,2013-09-23T00:00:00Z,H,2014-03-24,2014-03-24T23:59:59Z,H,COMPLETED,2014-03-24,NA,2013-09-23,2014-03-24,183,NA,NA,NA,NA,1928-09-15
CDISCPILOT01,01-701-1429,1429,701,USA,2013-03-19,2013-04-30,2013-03-19,2013-04-30,2013-04-30T12:22,NA,NA,NA,NA,NA,NA,NA,NA,NA,NA,NA,NA,2013-02-25,-22,84,YEARS,>64,F,WHITE,White,NOT HISPANIC OR LATINO,Y,Xanomeline Low Dose,Xan_Lo,Xanomeline Low Dose,Xan_Lo,Xanomeline Low Dose,Xanomeline Low Dose,2013-03-19,2013-03-19T00:00:00Z,H,2013-04-30,2013-04-30T23:59:59Z,H,DISCONTINUED,2013-04-30,NA,2013-03-19,2013-04-30,43,NA,NA,NA,NA,1929-02-25
CDISCPILOT01,01-701-1440,1440,701,USA,2013-08-08,2014-02-05,2013-08-08,2014-02-05,2014-02-05T11:25,NA,NA,NA,NA,NA,NA,NA,NA,NA,NA,NA,NA,2013-07-24,-15,70,YEARS,>64,M,WHITE,White,NOT HISPANIC OR LATINO,Y,Placebo,Pbo,Placebo,Pbo,Placebo,Placebo,2013-08-08,2013-08-08T00:00:00Z,H,2014-02-05,2014-02-05T23:59:59Z,H,COMPLETED,2014-02-05,NA,2013-08-08,2014-02-05,182,NA,NA,NA,NA,1943-07-24
CDISCPILOT01,01-701-1442,1442,701,USA,2013-10-26,2014-04-26,2013-10-26,2014-04-26,2014-04-26T10:00,NA,NA,NA,NA,NA,NA,NA,NA,NA,NA,NA,NA,2013-10-17,-9,57,YEARS,18-64,F,BLACK OR AFRICAN AMERICAN,Non-white,NOT HISPANIC OR LATINO,Y,Xanomeline Low Dose,Xan_Lo,Xanomeline Low Dose,Xan_Lo,Xanomeline Low Dose,Xanomeline Low Dose,2013-10-26,2013-10-26T00:00:00Z,H,2014-04-26,2014-04-26T23:59:59Z,H,COMPLETED,2014-04-26,NA,2013-10-26,2014-04-26,183,NA,NA,NA,NA,1956-10-17
CDISCPILOT01,01-701-1444,1444,701,USA,2013-01-05,2013-02-13,2013-01-05,2013-02-12,2013-06-20,NA,2013-06-20,NA,NA,NA,NA,NA,NA,NA,NA,NA,NA,2012-12-31,-5,63,YEARS,18-64,M,WHITE,White,HISPANIC OR LATINO,Y,Xanomeline High Dose,Xan_Hi,Xanomeline High Dose,Xan_Hi,Xanomeline High Dose,Xanomeline High Dose,2013-01-05,2013-01-05T00:00:00Z,H,2013-02-12,2013-02-12T23:59:59Z,H,DISCONTINUED,2013-02-13,NA,2013-01-05,2013-02-13,39,NA,NA,NA,NA,1949-12-31
CDISCPILOT01,01-702-1082,1082,702,USA,2013-07-26,2013-11-17,2013-07-26,2013-10-13,2013-11-17T12:20,NA,NA,NA,NA,NA,NA,NA,NA,NA,NA,NA,NA,2013-07-03,-23,84,YEARS,>64,F,WHITE,White,NOT HISPANIC OR LATINO,Y,Xanomeline Low Dose,Xan_Lo,Xanomeline Low Dose,Xan_Lo,Xanomeline Low Dose,Xanomeline Low Dose,2013-07-26,2013-07-26T00:00:00Z,H,2013-10-13,2013-10-13T23:59:59Z,H,DISCONTINUED,2013-11-17,NA,2013-07-26,2013-11-17,80,NA,NA,NA,NA,1929-07-03
CDISCPILOT01,01-703-1042,1042,703,USA,2013-03-02,2013-08-31,2013-03-02,2013-08-31,2013-08-31T11:00,NA,NA,NA,NA,NA,NA,NA,NA,NA,NA,NA,NA,2013-02-23,-7,64,YEARS,18-64,M,WHITE,White,NOT HISPANIC OR LATINO,Y,Placebo,Pbo,Placebo,Pbo,Placebo,Placebo,2013-03-02,2013-03-02T00:00:00Z,H,2013-08-31,2013-08-31T23:59:59Z,H,COMPLETED,2013-08-31,NA,2013-03-02,2013-08-31,183,NA,NA,NA,NA,1949-02-23
CDISCPILOT01,01-703-1076,1076,703,USA,2013-10-25,2013-12-24,2013-10-25,2013-12-24,2014-01-21,NA,NA,NA,NA,NA,NA,NA,NA,NA,NA,NA,NA,2013-10-17,-8,69,YEARS,>64,M,WHITE,White,NOT HISPANIC OR LATINO,Y,Xanomeline High Dose,Xan_Hi,Xanomeline High Dose,Xan_Hi,Xanomeline High Dose,Xanomeline High Dose,2013-10-25,2013-10-25T00:00:00Z,H,2013-12-24,2013-12-24T23:59:59Z,H,DISCONTINUED,2013-12-24,NA,2013-10-25,2013-12-24,61,NA,NA,NA,NA,1944-10-17
CDISCPILOT01,01-703-1086,1086,703,USA,2012-09-02,2012-12-24,2012-09-02,2012-12-04,2013-03-26,NA,2013-03-26,NA,NA,NA,NA,NA,NA,NA,NA,NA,NA,2012-08-22,-11,71,YEARS,>64,M,WHITE,White,NOT HISPANIC OR LATINO,Y,Xanomeline Low Dose,Xan_Lo,Xanomeline Low Dose,Xan_Lo,Xanomeline Low Dose,Xanomeline Low Dose,2012-09-02,2012-09-02T00:00:00Z,H,2012-12-04,2012-12-04T23:59:59Z,H,DISCONTINUED,2012-12-24,NA,2012-09-02,2013-01-02,94,NA,NA,NA,NA,1941-08-22
CDISCPILOT01,01-703-1096,1096,703,USA,2013-01-25,2013-03-29,2013-01-25,2013-03-16,2013-03-29,NA,NA,NA,NA,NA,NA,NA,NA,NA,NA,NA,NA,2012-12-19,-37,81,YEARS,>64,F,WHITE,White,NOT HISPANIC OR LATINO,Y,Placebo,Pbo,Placebo,Pbo,Placebo,Placebo,2013-01-25,2013-01-25T00:00:00Z,H,2013-03-16,2013-03-16T23:59:59Z,H,DISCONTINUED,2013-03-29,NA,2013-01-25,2013-03-16,51,NA,NA,NA,NA,1931-12-19
CDISCPILOT01,01-703-1100,1100,703,USA,2013-03-13,2013-09-14,2013-03-13,2013-09-14,2013-09-14T15:00,NA,NA,NA,NA,NA,NA,NA,NA,NA,NA,NA,NA,2013-02-28,-13,84,YEARS,>64,F,WHITE,White,NOT HISPANIC OR LATINO,Y,Placebo,Pbo,Placebo,Pbo,Placebo,Placebo,2013-03-13,2013-03-13T00:00:00Z,H,2013-09-14,2013-09-14T23:59:59Z,H,COMPLETED,2013-09-14,NA,2013-03-13,2013-09-14,186,NA,NA,NA,NA,1929-02-28
CDISCPILOT01,01-703-1119,1119,703,USA,2013-02-20,2013-06-13,2013-02-20,2013-06-13,2013-08-24,NA,2013-08-24,NA,NA,NA,NA,NA,NA,NA,NA,NA,NA,2013-02-02,-18,81,YEARS,>64,F,WHITE,White,NOT HISPANIC OR LATINO,Y,Xanomeline Low Dose,Xan_Lo,Xanomeline Low Dose,Xan_Lo,Xanomeline Low Dose,Xanomeline Low Dose,2013-02-20,2013-02-20T00:00:00Z,H,2013-06-13,2013-06-13T23:59:59Z,H,DISCONTINUED,2013-06-13,NA,2013-02-20,2013-06-13,114,NA,NA,NA,NA,1932-02-02
CDISCPILOT01,01-703-1175,1175,703,USA,2013-12-20,2013-12-31,2013-12-20,2013-12-26,2013-12-31T13:15,NA,NA,NA,NA,NA,NA,NA,NA,NA,NA,NA,NA,2013-12-13,-7,75,YEARS,>64,M,WHITE,White,NOT HISPANIC OR LATINO,Y,Placebo,Pbo,Placebo,Pbo,Placebo,Placebo,2013-12-20,2013-12-20T00:00:00Z,H,2013-12-26,2013-12-26T23:59:59Z,H,DISCONTINUED,2013-12-31,NA,2013-12-20,2013-12-31,7,NA,NA,NA,NA,1938-12-13
CDISCPILOT01,01-703-1182,1182,703,USA,2013-10-17,2013-12-12,2013-10-17,2013-12-11,2014-01-14,NA,NA,NA,NA,NA,NA,NA,NA,NA,NA,NA,NA,2013-10-08,-9,84,YEARS,>64,M,WHITE,White,NOT HISPANIC OR LATINO,Y,Xanomeline Low Dose,Xan_Lo,Xanomeline Low Dose,Xan_Lo,Xanomeline Low Dose,Xanomeline Low Dose,2013-10-17,2013-10-17T00:00:00Z,H,2013-12-11,2013-12-11T23:59:59Z,H,DISCONTINUED,2013-12-12,NA,2013-10-17,2013-12-12,56,NA,NA,NA,NA,1929-10-08
CDISCPILOT01,01-703-1197,1197,703,USA,2013-06-16,2013-07-22,2013-06-16,2013-06-29,2013-07-22,NA,NA,NA,NA,NA,NA,NA,NA,NA,NA,NA,NA,2013-06-01,-15,76,YEARS,>64,F,BLACK OR AFRICAN AMERICAN,Non-white,NOT HISPANIC OR LATINO,Y,Xanomeline Low Dose,Xan_Lo,Xanomeline Low Dose,Xan_Lo,Xanomeline Low Dose,Xanomeline Low Dose,2013-06-16,2013-06-16T00:00:00Z,H,2013-06-29,2013-06-29T23:59:59Z,H,DISCONTINUED,2013-07-22,NA,2013-06-16,2013-06-29,14,NA,NA,NA,NA,1937-06-01
CDISCPILOT01,01-703-1210,1210,703,USA,2013-03-16,2013-09-06,2013-03-16,2013-09-06,2013-09-06T13:30,NA,NA,NA,NA,NA,NA,NA,NA,NA,NA,NA,NA,2013-03-08,-8,72,YEARS,>64,F,WHITE,White,NOT HISPANIC OR LATINO,Y,Placebo,Pbo,Placebo,Pbo,Placebo,Placebo,2013-03-16,2013-03-16T00:00:00Z,H,2013-09-06,2013-09-06T23:59:59Z,H,COMPLETED,2013-09-06,NA,2013-03-16,2013-09-06,175,NA,NA,NA,NA,1941-03-08
CDISCPILOT01,01-703-1258,1258,703,USA,2012-07-20,2013-01-21,2012-07-20,2013-01-11,2013-01-28,NA,NA,NA,NA,NA,NA,NA,NA,NA,NA,NA,NA,2012-07-10,-10,78,YEARS,>64,F,WHITE,White,NOT HISPANIC OR LATINO,Y,Xanomeline High Dose,Xan_Hi,Xanomeline High Dose,Xan_Hi,Xanomeline High Dose,Xanomeline High Dose,2012-07-20,2012-07-20T00:00:00Z,H,2013-01-11,2013-01-11T23:59:59Z,H,DISCONTINUED,2013-01-21,NA,2012-07-20,2013-01-25,176,NA,NA,NA,NA,1934-07-10
CDISCPILOT01,01-703-1279,1279,703,USA,2013-05-13,2013-06-22,2013-05-13,2013-06-03,2013-06-22,NA,NA,NA,NA,NA,NA,NA,NA,NA,NA,NA,NA,2013-04-27,-16,72,YEARS,>64,F,WHITE,White,NOT HISPANIC OR LATINO,Y,Xanomeline Low Dose,Xan_Lo,Xanomeline Low Dose,Xan_Lo,Xanomeline Low Dose,Xanomeline Low Dose,2013-05-13,2013-05-13T00:00:00Z,H,2013-06-03,2013-06-03T23:59:59Z,H,DISCONTINUED,2013-06-22,NA,2013-05-13,2013-06-03,22,NA,NA,NA,NA,1941-04-27
CDISCPILOT01,01-703-1295,1295,703,USA,2013-11-21,2014-05-19,2013-11-21,2014-04-19,2014-05-19T14:45,NA,NA,NA,NA,NA,NA,NA,NA,NA,NA,NA,NA,2013-10-24,-28,88,YEARS,>64,F,WHITE,White,NOT HISPANIC OR LATINO,Y,Xanomeline High Dose,Xan_Hi,Xanomeline High Dose,Xan_Hi,Xanomeline High Dose,Xanomeline High Dose,2013-11-21,2013-11-21T00:00:00Z,H,2014-04-19,2014-04-19T23:59:59Z,H,DISCONTINUED,2014-05-19,NA,2013-11-21,2014-05-19,150,NA,NA,NA,NA,1925-10-24
CDISCPILOT01,01-703-1299,1299,703,USA,2012-09-12,2013-03-13,2012-09-12,2013-03-13,2013-03-27,NA,NA,NA,NA,NA,NA,NA,NA,NA,NA,NA,NA,2012-09-07,-5,81,YEARS,>64,F,WHITE,White,NOT HISPANIC OR LATINO,Y,Placebo,Pbo,Placebo,Pbo,Placebo,Placebo,2012-09-12,2012-09-12T00:00:00Z,H,2013-03-13,2013-03-13T23:59:59Z,H,COMPLETED,2013-03-13,NA,2012-09-12,2013-03-13,183,NA,NA,NA,NA,1931-09-07
CDISCPILOT01,01-703-1335,1335,703,USA,2014-03-17,2014-05-24,2014-03-17,2014-05-07,2014-05-24T12:15,NA,NA,NA,NA,NA,NA,NA,NA,NA,NA,NA,NA,2014-02-28,-17,67,YEARS,>64,F,BLACK OR AFRICAN AMERICAN,Non-white,NOT HISPANIC OR LATINO,Y,Xanomeline High Dose,Xan_Hi,Xanomeline High Dose,Xan_Hi,Xanomeline High Dose,Xanomeline High Dose,2014-03-17,2014-03-17T00:00:00Z,H,2014-05-07,2014-05-07T23:59:59Z,H,DISCONTINUED,2014-05-24,NA,2014-03-17,2014-05-24,52,NA,NA,NA,NA,1947-02-28
CDISCPILOT01,01-703-1379,1379,703,USA,2013-09-22,2014-03-21,2013-09-22,2014-03-21,2014-03-21T10:55,NA,NA,NA,NA,NA,NA,NA,NA,NA,NA,NA,NA,2013-09-12,-10,81,YEARS,>64,F,BLACK OR AFRICAN AMERICAN,Non-white,NOT HISPANIC OR LATINO,Y,Xanomeline Low Dose,Xan_Lo,Xanomeline Low Dose,Xan_Lo,Xanomeline Low Dose,Xanomeline Low Dose,2013-09-22,2013-09-22T00:00:00Z,H,2014-03-21,2014-03-21T23:59:59Z,H,COMPLETED,2014-03-21,NA,2013-09-22,2014-03-21,181,NA,NA,NA,NA,1932-09-12
CDISCPILOT01,01-703-1396,1396,703,USA,NA,NA,NA,NA,2014-02-27,2014-02-09,NA,NA,NA,NA,NA,NA,NA,NA,NA,NA,NA,2014-02-09,NA,84,YEARS,>64,M,ASIAN,Non-white,NOT HISPANIC OR LATINO,N,Screen Failure,Scrnfail,Screen Failure,Scrnfail,Screen Failure,Screen Failure,NA,NA,NA,NA,NA,NA,NA,NA,NA,NA,NA,NA,NA,NA,NA,NA,1930-02-09
CDISCPILOT01,01-703-1403,1403,703,USA,2012-12-12,2012-12-19,2012-12-12,2012-12-13,2013-01-08,NA,NA,NA,NA,NA,NA,NA,NA,NA,NA,NA,NA,2012-12-05,-7,67,YEARS,>64,M,WHITE,White,NOT HISPANIC OR LATINO,Y,Xanomeline High Dose,Xan_Hi,Xanomeline Low Dose,Xan_Lo,Xanomeline High Dose,Xanomeline Low Dose,2012-12-12,2012-12-12T00:00:00Z,H,2012-12-13,2012-12-13T23:59:59Z,H,DISCONTINUED,2012-12-19,NA,2012-12-12,2012-12-19,2,NA,NA,NA,NA,1945-12-05
CDISCPILOT01,01-703-1439,1439,703,USA,2014-03-12,2014-09-11,2014-03-12,2014-09-11,2014-09-11T12:40,NA,NA,NA,NA,NA,NA,NA,NA,NA,NA,NA,NA,2014-03-04,-8,76,YEARS,>64,F,WHITE,White,NOT HISPANIC OR LATINO,Y,Xanomeline High Dose,Xan_Hi,Xanomeline High Dose,Xan_Hi,Xanomeline High Dose,Xanomeline High Dose,2014-03-12,2014-03-12T00:00:00Z,H,2014-09-11,2014-09-11T23:59:59Z,H,COMPLETED,2014-09-11,NA,2014-03-12,2014-09-11,184,NA,NA,NA,NA,1938-03-04
CDISCPILOT01,01-704-1008,1008,704,USA,2013-01-13,2013-02-25,2013-01-13,2013-02-21,2013-02-25T11:00,NA,NA,NA,NA,NA,NA,NA,NA,NA,NA,NA,NA,2013-01-06,-7,76,YEARS,>64,F,WHITE,White,NOT HISPANIC OR LATINO,Y,Xanomeline High Dose,Xan_Hi,Xanomeline High Dose,Xan_Hi,Xanomeline High Dose,Xanomeline High Dose,2013-01-13,2013-01-13T00:00:00Z,H,2013-02-21,2013-02-21T23:59:59Z,H,DISCONTINUED,2013-02-25,NA,2013-01-13,2013-02-25,40,NA,NA,NA,NA,1937-01-06
CDISCPILOT01,01-704-1009,1009,704,USA,2013-08-27,2013-10-02,2013-08-27,2013-09-25,2013-10-02,NA,NA,NA,NA,NA,NA,NA,NA,NA,NA,NA,NA,2013-08-20,-7,83,YEARS,>64,M,WHITE,White,NOT HISPANIC OR LATINO,Y,Xanomeline Low Dose,Xan_Lo,Xanomeline Low Dose,Xan_Lo,Xanomeline Low Dose,Xanomeline Low Dose,2013-08-27,2013-08-27T00:00:00Z,H,2013-09-25,2013-09-25T23:59:59Z,H,DISCONTINUED,2013-10-02,NA,2013-08-27,2013-09-27,30,NA,NA,NA,NA,1930-08-20
CDISCPILOT01,01-704-1010,1010,704,USA,2014-02-21,2014-07-09,2014-02-21,2014-07-08,2014-07-09T11:00,NA,NA,NA,NA,NA,NA,NA,NA,NA,NA,NA,NA,2014-02-08,-13,80,YEARS,>64,M,WHITE,White,NOT HISPANIC OR LATINO,Y,Placebo,Pbo,Placebo,Pbo,Placebo,Placebo,2014-02-21,2014-02-21T00:00:00Z,H,2014-07-08,2014-07-08T23:59:59Z,H,DISCONTINUED,2014-07-09,NA,2014-02-21,2014-07-09,138,NA,NA,NA,NA,1934-02-08
CDISCPILOT01,01-704-1017,1017,704,USA,2013-10-06,2013-11-24,2013-10-06,2013-11-18,2013-12-06,NA,NA,NA,NA,NA,NA,NA,NA,NA,NA,NA,NA,2013-09-20,-16,77,YEARS,>64,M,WHITE,White,NOT HISPANIC OR LATINO,Y,Xanomeline High Dose,Xan_Hi,Xanomeline High Dose,Xan_Hi,Xanomeline High Dose,Xanomeline High Dose,2013-10-06,2013-10-06T00:00:00Z,H,2013-11-18,2013-11-18T23:59:59Z,H,DISCONTINUED,2013-11-24,NA,2013-10-06,2013-11-22,44,NA,NA,NA,NA,1936-09-20
CDISCPILOT01,01-704-1025,1025,704,USA,2013-09-27,2013-11-29,2013-09-27,2013-10-24,2013-11-29T12:00,NA,NA,NA,NA,NA,NA,NA,NA,NA,NA,NA,NA,2013-09-18,-9,81,YEARS,>64,F,WHITE,White,NOT HISPANIC OR LATINO,Y,Xanomeline Low Dose,Xan_Lo,Xanomeline Low Dose,Xan_Lo,Xanomeline Low Dose,Xanomeline Low Dose,2013-09-27,2013-09-27T00:00:00Z,H,2013-10-24,2013-10-24T23:59:59Z,H,DISCONTINUED,2013-11-29,NA,2013-09-27,2013-11-29,28,NA,NA,NA,NA,1932-09-18
CDISCPILOT01,01-704-1065,1065,704,USA,2013-10-24,2013-12-24,2013-10-24,2013-12-22,2014-02-17,NA,NA,NA,NA,NA,NA,NA,NA,NA,NA,NA,NA,2013-10-17,-7,75,YEARS,>64,M,WHITE,White,NOT HISPANIC OR LATINO,Y,Xanomeline High Dose,Xan_Hi,Xanomeline High Dose,Xan_Hi,Xanomeline High Dose,Xanomeline High Dose,2013-10-24,2013-10-24T00:00:00Z,H,2013-12-22,2013-12-22T23:59:59Z,H,DISCONTINUED,2013-12-24,NA,2013-10-24,2013-12-24,60,NA,NA,NA,NA,1938-10-17
CDISCPILOT01,01-704-1074,1074,704,USA,2014-01-22,2014-03-31,2014-01-22,2014-03-20,2014-03-31T10:30,NA,NA,NA,NA,NA,NA,NA,NA,NA,NA,NA,NA,2014-01-19,-3,80,YEARS,>64,F,WHITE,White,NOT HISPANIC OR LATINO,Y,Xanomeline High Dose,Xan_Hi,Xanomeline High Dose,Xan_Hi,Xanomeline High Dose,Xanomeline High Dose,2014-01-22,2014-01-22T00:00:00Z,H,2014-03-20,2014-03-20T23:59:59Z,H,DISCONTINUED,2014-03-31,NA,2014-01-22,2014-03-31,58,NA,NA,NA,NA,1934-01-19
CDISCPILOT01,01-704-1093,1093,704,USA,2013-03-15,2013-06-20,2013-03-15,2013-06-17,2013-12-25,NA,2013-12-25,NA,NA,NA,NA,NA,NA,NA,NA,NA,NA,2013-02-22,-21,79,YEARS,>64,M,WHITE,White,NOT HISPANIC OR LATINO,Y,Xanomeline High Dose,Xan_Hi,Xanomeline High Dose,Xan_Hi,Xanomeline High Dose,Xanomeline High Dose,2013-03-15,2013-03-15T00:00:00Z,H,2013-06-17,2013-06-17T23:59:59Z,H,DISCONTINUED,2013-06-20,NA,2013-03-15,2013-06-20,95,NA,NA,NA,NA,1934-02-22
CDISCPILOT01,01-704-1114,1114,704,USA,2013-01-23,2013-07-08,2013-01-23,2013-07-07,2013-07-08T09:56,NA,NA,NA,NA,NA,NA,NA,NA,NA,NA,NA,NA,2013-01-09,-14,77,YEARS,>64,M,WHITE,White,NOT HISPANIC OR LATINO,Y,Xanomeline Low Dose,Xan_Lo,Xanomeline Low Dose,Xan_Lo,Xanomeline Low Dose,Xanomeline Low Dose,2013-01-23,2013-01-23T00:00:00Z,H,2013-07-07,2013-07-07T23:59:59Z,H,DISCONTINUED,2013-07-08,NA,2013-01-23,2013-07-08,166,NA,NA,NA,NA,1936-01-09
CDISCPILOT01,01-704-1120,1120,704,USA,2013-12-02,2014-02-03,2013-12-02,2014-02-01,2014-03-10,NA,NA,NA,NA,NA,NA,NA,NA,NA,NA,NA,NA,2013-11-18,-14,71,YEARS,>64,F,WHITE,White,NOT HISPANIC OR LATINO,Y,Xanomeline Low Dose,Xan_Lo,Xanomeline Low Dose,Xan_Lo,Xanomeline Low Dose,Xanomeline Low Dose,2013-12-02,2013-12-02T00:00:00Z,H,2014-02-01,2014-02-01T23:59:59Z,H,DISCONTINUED,2014-02-03,NA,2013-12-02,2014-02-03,62,NA,NA,NA,NA,1942-11-18
CDISCPILOT01,01-704-1127,1127,704,USA,2013-10-02,2014-03-31,2013-10-02,2014-03-31,2014-03-31T11:30,NA,NA,NA,NA,NA,NA,NA,NA,NA,NA,NA,NA,2013-09-16,-16,84,YEARS,>64,F,WHITE,White,NOT HISPANIC OR LATINO,Y,Placebo,Pbo,Placebo,Pbo,Placebo,Placebo,2013-10-02,2013-10-02T00:00:00Z,H,2014-03-31,2014-03-31T23:59:59Z,H,COMPLETED,2014-03-31,NA,2013-10-02,2014-03-31,181,NA,NA,NA,NA,1929-09-16
CDISCPILOT01,01-704-1135,1135,704,USA,2013-10-31,2014-05-16,2013-10-31,2014-05-16,2014-05-16T09:45,NA,NA,NA,NA,NA,NA,NA,NA,NA,NA,NA,NA,2013-10-23,-8,74,YEARS,>64,F,WHITE,White,NOT HISPANIC OR LATINO,Y,Xanomeline Low Dose,Xan_Lo,Xanomeline Low Dose,Xan_Lo,Xanomeline Low Dose,Xanomeline Low Dose,2013-10-31,2013-10-31T00:00:00Z,H,2014-05-16,2014-05-16T23:59:59Z,H,COMPLETED,2014-05-16,NA,2013-10-31,2014-05-16,198,NA,NA,NA,NA,1939-10-23
CDISCPILOT01,01-704-1164,1164,704,USA,2012-09-19,2013-04-04,2012-09-19,2013-04-04,2013-04-04,NA,NA,NA,NA,NA,NA,NA,NA,NA,NA,NA,NA,2012-09-11,-8,67,YEARS,>64,F,WHITE,White,NOT HISPANIC OR LATINO,Y,Placebo,Pbo,Placebo,Pbo,Placebo,Placebo,2012-09-19,2012-09-19T00:00:00Z,H,2013-04-04,2013-04-04T23:59:59Z,H,COMPLETED,2013-04-04,NA,2012-09-19,2013-04-04,198,NA,NA,NA,NA,1945-09-11
CDISCPILOT01,01-704-1218,1218,704,USA,2012-11-19,2013-05-27,2012-11-19,2013-05-27,2013-05-27T11:20,NA,NA,NA,NA,NA,NA,NA,NA,NA,NA,NA,NA,2012-11-11,-8,81,YEARS,>64,F,WHITE,White,NOT HISPANIC OR LATINO,Y,Xanomeline Low Dose,Xan_Lo,Xanomeline Low Dose,Xan_Lo,Xanomeline Low Dose,Xanomeline Low Dose,2012-11-19,2012-11-19T00:00:00Z,H,2013-05-27,2013-05-27T23:59:59Z,H,COMPLETED,2013-05-27,NA,2012-11-19,2013-05-27,190,NA,NA,NA,NA,1931-11-11
CDISCPILOT01,01-704-1233,1233,704,USA,2013-03-21,2013-07-14,2013-03-21,2013-04-04,2013-07-14,NA,NA,NA,NA,NA,NA,NA,NA,NA,NA,NA,NA,2013-03-08,-13,87,YEARS,>64,F,WHITE,White,NOT HISPANIC OR LATINO,Y,Placebo,Pbo,Placebo,Pbo,Placebo,Placebo,2013-03-21,2013-03-21T00:00:00Z,H,2013-04-04,2013-04-04T23:59:59Z,H,DISCONTINUED,2013-07-14,NA,2013-03-21,2013-07-11,15,NA,NA,NA,NA,1926-03-08
CDISCPILOT01,01-704-1241,1241,704,USA,2013-08-25,2013-10-31,2013-08-25,2013-10-09,2014-01-22,NA,NA,NA,NA,NA,NA,NA,NA,NA,NA,NA,NA,2013-08-14,-11,86,YEARS,>64,M,WHITE,White,NOT HISPANIC OR LATINO,Y,Xanomeline High Dose,Xan_Hi,Xanomeline High Dose,Xan_Hi,Xanomeline High Dose,Xanomeline High Dose,2013-08-25,2013-08-25T00:00:00Z,H,2013-10-09,2013-10-09T23:59:59Z,H,DISCONTINUED,2013-10-31,NA,2013-08-25,2013-10-31,46,NA,NA,NA,NA,1927-08-14
CDISCPILOT01,01-704-1260,1260,704,USA,2012-08-30,2013-01-18,2012-08-30,2012-11-04,2013-01-18,NA,NA,NA,NA,NA,NA,NA,NA,NA,NA,NA,NA,2012-08-23,-7,71,YEARS,>64,F,WHITE,White,NOT HISPANIC OR LATINO,Y,Placebo,Pbo,Placebo,Pbo,Placebo,Placebo,2012-08-30,2012-08-30T00:00:00Z,H,2012-11-04,2012-11-04T23:59:59Z,H,DISCONTINUED,2013-01-18,NA,2012-08-30,2012-11-04,67,NA,NA,NA,NA,1941-08-23
CDISCPILOT01,01-704-1266,1266,704,USA,2013-10-13,2013-12-06,2013-10-13,2013-12-06,2014-01-03,NA,NA,NA,NA,NA,NA,NA,NA,NA,NA,NA,NA,2013-10-05,-8,82,YEARS,>64,M,WHITE,White,NOT HISPANIC OR LATINO,Y,Xanomeline High Dose,Xan_Hi,Xanomeline High Dose,Xan_Hi,Xanomeline High Dose,Xanomeline High Dose,2013-10-13,2013-10-13T00:00:00Z,H,2013-12-06,2013-12-06T23:59:59Z,H,DISCONTINUED,2013-12-06,NA,2013-10-13,2013-12-23,55,NA,NA,NA,NA,1931-10-05
CDISCPILOT01,01-704-1323,1323,704,USA,2013-07-08,2013-08-08,2013-07-08,2013-08-05,2013-10-01,NA,NA,NA,NA,NA,NA,NA,NA,NA,NA,NA,NA,2013-06-13,-25,68,YEARS,>64,F,WHITE,White,NOT HISPANIC OR LATINO,Y,Xanomeline Low Dose,Xan_Lo,Xanomeline Low Dose,Xan_Lo,Xanomeline Low Dose,Xanomeline Low Dose,2013-07-08,2013-07-08T00:00:00Z,H,2013-08-05,2013-08-05T23:59:59Z,H,DISCONTINUED,2013-08-08,NA,2013-07-08,2013-08-05,29,NA,NA,NA,NA,1945-06-13
CDISCPILOT01,01-704-1325,1325,704,USA,2014-04-23,2014-08-06,2014-04-23,2014-07-04,2014-08-06T13:30,NA,NA,NA,NA,NA,NA,NA,NA,NA,NA,NA,NA,2014-04-16,-7,81,YEARS,>64,M,WHITE,White,NOT HISPANIC OR LATINO,Y,Xanomeline Low Dose,Xan_Lo,Xanomeline Low Dose,Xan_Lo,Xanomeline Low Dose,Xanomeline Low Dose,2014-04-23,2014-04-23T00:00:00Z,H,2014-07-04,2014-07-04T23:59:59Z,H,DISCONTINUED,2014-08-06,NA,2014-04-23,2014-08-06,73,NA,NA,NA,NA,1933-04-16
CDISCPILOT01,01-704-1332,1332,704,USA,2013-12-09,2014-02-16,2013-12-09,2014-02-14,2014-02-24,NA,NA,NA,NA,NA,NA,NA,NA,NA,NA,NA,NA,2013-11-24,-15,80,YEARS,>64,M,WHITE,White,NOT HISPANIC OR LATINO,Y,Xanomeline High Dose,Xan_Hi,Xanomeline High Dose,Xan_Hi,Xanomeline High Dose,Xanomeline High Dose,2013-12-09,2013-12-09T00:00:00Z,H,2014-02-14,2014-02-14T23:59:59Z,H,DISCONTINUED,2014-02-16,NA,2013-12-09,2014-02-24,68,NA,NA,NA,NA,1933-11-24
CDISCPILOT01,01-704-1351,1351,704,USA,2013-10-12,2014-04-18,2013-10-12,2014-04-18,2014-04-18T10:30,NA,NA,NA,NA,NA,NA,NA,NA,NA,NA,NA,NA,2013-09-26,-16,70,YEARS,>64,M,WHITE,White,NOT HISPANIC OR LATINO,Y,Placebo,Pbo,Placebo,Pbo,Placebo,Placebo,2013-10-12,2013-10-12T00:00:00Z,H,2014-04-18,2014-04-18T23:59:59Z,H,COMPLETED,2014-04-18,NA,2013-10-12,2014-04-18,189,NA,NA,NA,NA,1943-09-26
CDISCPILOT01,01-704-1388,1388,704,USA,2012-12-07,2013-06-19,2012-12-07,2013-06-11,2013-06-19T12:30,NA,NA,NA,NA,NA,NA,NA,NA,NA,NA,NA,NA,2012-11-28,-9,81,YEARS,>64,M,WHITE,White,NOT HISPANIC OR LATINO,Y,Placebo,Pbo,Placebo,Pbo,Placebo,Placebo,2012-12-07,2012-12-07T00:00:00Z,H,2013-06-11,2013-06-11T23:59:59Z,H,COMPLETED,2013-06-19,NA,2012-12-07,2013-06-19,187,NA,NA,NA,NA,1931-11-28
CDISCPILOT01,01-704-1435,1435,704,USA,2012-11-17,2013-01-12,2012-11-17,2013-01-09,2013-01-12T12:00,NA,NA,NA,NA,NA,NA,NA,NA,NA,NA,NA,NA,2012-11-01,-16,74,YEARS,>64,M,WHITE,White,NOT HISPANIC OR LATINO,Y,Placebo,Pbo,Placebo,Pbo,Placebo,Placebo,2012-11-17,2012-11-17T00:00:00Z,H,2013-01-09,2013-01-09T23:59:59Z,H,DISCONTINUED,2013-01-12,NA,2012-11-17,2013-01-12,54,NA,NA,NA,NA,1938-11-01
CDISCPILOT01,01-704-1445,1445,704,USA,2014-05-11,2014-11-01,2014-05-11,2014-11-01,2014-11-01,NA,NA,2014-11-01,175,Y,0,<= 30,Y,NA,AE,NA,NA,2014-05-01,-10,75,YEARS,>64,M,WHITE,White,NOT HISPANIC OR LATINO,Y,Placebo,Pbo,Placebo,Pbo,Placebo,Placebo,2014-05-11,2014-05-11T00:00:00Z,H,2014-11-01,2014-11-01T23:59:59Z,H,DISCONTINUED,2014-11-01,NA,2014-05-11,2014-11-01,175,2014-11-01,NA,COMPLETED SUICIDE,ADVERSE EVENT,1939-05-01
CDISCPILOT01,01-705-1011,1011,705,USA,NA,NA,NA,NA,2013-09-13,2013-09-01,NA,NA,NA,NA,NA,NA,NA,NA,NA,NA,NA,2013-09-01,NA,75,YEARS,>64,F,WHITE,White,NOT HISPANIC OR LATINO,N,Screen Failure,Scrnfail,Screen Failure,Scrnfail,Screen Failure,Screen Failure,NA,NA,NA,NA,NA,NA,NA,NA,NA,NA,NA,NA,NA,NA,NA,NA,1938-09-01
CDISCPILOT01,01-705-1018,1018,705,USA,2013-07-05,2013-07-12,2013-07-05,NA,2013-07-12,NA,NA,NA,NA,NA,NA,NA,NA,NA,NA,NA,NA,2013-06-30,-5,69,YEARS,>64,F,WHITE,White,NOT HISPANIC OR LATINO,Y,Placebo,Pbo,Placebo,Pbo,Placebo,Placebo,2013-07-05,2013-07-05T00:00:00Z,H,NA,NA,NA,DISCONTINUED,2013-07-12,NA,2013-07-05,2013-06-30,NA,NA,NA,NA,NA,1944-06-30
CDISCPILOT01,01-705-1031,1031,705,USA,2013-11-27,2014-05-11,2013-11-27,2013-12-18,2014-05-11T09:55,NA,NA,NA,NA,NA,NA,NA,NA,NA,NA,NA,NA,2013-11-17,-10,56,YEARS,18-64,F,WHITE,White,HISPANIC OR LATINO,Y,Xanomeline Low Dose,Xan_Lo,Xanomeline Low Dose,Xan_Lo,Xanomeline Low Dose,Xanomeline Low Dose,2013-11-27,2013-11-27T00:00:00Z,H,2013-12-18,2013-12-18T23:59:59Z,H,DISCONTINUED,2014-05-11,NA,2013-11-27,2014-05-11,22,NA,NA,NA,NA,1957-11-17
CDISCPILOT01,01-705-1058,1058,705,USA,NA,NA,NA,NA,2013-12-06,2013-12-02,NA,NA,NA,NA,NA,NA,NA,NA,NA,NA,NA,2013-12-02,NA,89,YEARS,>64,M,WHITE,White,NOT HISPANIC OR LATINO,N,Screen Failure,Scrnfail,Screen Failure,Scrnfail,Screen Failure,Screen Failure,NA,NA,NA,NA,NA,NA,NA,NA,NA,NA,NA,NA,NA,NA,NA,NA,1924-12-02
CDISCPILOT01,01-705-1059,1059,705,USA,2013-08-05,2013-12-05,2013-08-05,2013-12-05,2014-02-06,NA,2014-02-06,NA,NA,NA,NA,NA,NA,NA,NA,NA,NA,2013-08-02,-3,66,YEARS,>64,F,WHITE,White,NOT HISPANIC OR LATINO,Y,Placebo,Pbo,Placebo,Pbo,Placebo,Placebo,2013-08-05,2013-08-05T00:00:00Z,H,2013-12-05,2013-12-05T23:59:59Z,H,DISCONTINUED,2013-12-05,NA,2013-08-05,2013-12-05,123,NA,NA,NA,NA,1947-08-02
CDISCPILOT01,01-705-1112,1112,705,USA,NA,NA,NA,NA,2014-02-24,2014-02-23,NA,NA,NA,NA,NA,NA,NA,NA,NA,NA,NA,2014-02-23,NA,78,YEARS,>64,M,WHITE,White,NOT HISPANIC OR LATINO,N,Screen Failure,Scrnfail,Screen Failure,Scrnfail,Screen Failure,Screen Failure,NA,NA,NA,NA,NA,NA,NA,NA,NA,NA,NA,NA,NA,NA,NA,NA,1936-02-23
CDISCPILOT01,01-705-1186,1186,705,USA,2014-01-08,2014-02-07,2014-01-08,2014-01-26,2014-02-07T15:20,NA,NA,NA,NA,NA,NA,NA,NA,NA,NA,NA,NA,2014-01-03,-5,84,YEARS,>64,F,WHITE,White,NOT HISPANIC OR LATINO,Y,Placebo,Pbo,Placebo,Pbo,Placebo,Placebo,2014-01-08,2014-01-08T00:00:00Z,H,2014-01-26,2014-01-26T23:59:59Z,H,DISCONTINUED,2014-02-07,NA,2014-01-08,2014-02-07,19,NA,NA,NA,NA,1930-01-03
CDISCPILOT01,01-705-1199,1199,705,USA,2013-09-16,2013-09-29,2013-09-16,2013-09-28,2013-09-29T10:30,NA,NA,NA,NA,NA,NA,NA,NA,NA,NA,NA,NA,2013-09-11,-5,87,YEARS,>64,M,WHITE,White,NOT HISPANIC OR LATINO,Y,Xanomeline Low Dose,Xan_Lo,Xanomeline Low Dose,Xan_Lo,Xanomeline Low Dose,Xanomeline Low Dose,2013-09-16,2013-09-16T00:00:00Z,H,2013-09-28,2013-09-28T23:59:59Z,H,DISCONTINUED,2013-09-29,NA,2013-09-16,2013-09-29,13,NA,NA,NA,NA,1926-09-11
CDISCPILOT01,01-705-1243,1243,705,USA,NA,NA,NA,NA,2013-03-04,2013-02-26,NA,NA,NA,NA,NA,NA,NA,NA,NA,NA,NA,2013-02-26,NA,70,YEARS,>64,F,WHITE,White,HISPANIC OR LATINO,N,Screen Failure,Scrnfail,Screen Failure,Scrnfail,Screen Failure,Screen Failure,NA,NA,NA,NA,NA,NA,NA,NA,NA,NA,NA,NA,NA,NA,NA,NA,1943-02-26
CDISCPILOT01,01-705-1280,1280,705,USA,2014-01-17,2014-07-25,2014-01-17,2014-07-25,2014-07-25,NA,NA,NA,NA,NA,NA,NA,NA,NA,NA,NA,NA,2014-01-11,-6,56,YEARS,18-64,F,WHITE,White,NOT HISPANIC OR LATINO,Y,Xanomeline High Dose,Xan_Hi,Xanomeline High Dose,Xan_Hi,Xanomeline High Dose,Xanomeline High Dose,2014-01-17,2014-01-17T00:00:00Z,H,2014-07-25,2014-07-25T23:59:59Z,H,COMPLETED,2014-07-25,NA,2014-01-17,2014-07-25,190,NA,NA,NA,NA,1958-01-11
CDISCPILOT01,01-705-1281,1281,705,USA,2013-11-28,2014-03-17,2013-11-28,2014-02-27,2014-04-20,NA,NA,NA,NA,NA,NA,NA,NA,NA,NA,NA,NA,2013-11-26,-2,73,YEARS,>64,F,BLACK OR AFRICAN AMERICAN,Non-white,NOT HISPANIC OR LATINO,Y,Xanomeline High Dose,Xan_Hi,Xanomeline High Dose,Xan_Hi,Xanomeline High Dose,Xanomeline High Dose,2013-11-28,2013-11-28T00:00:00Z,H,2014-02-27,2014-02-27T23:59:59Z,H,DISCONTINUED,2014-03-17,NA,2013-11-28,2014-03-17,92,NA,NA,NA,NA,1940-11-26
CDISCPILOT01,01-705-1282,1282,705,USA,2012-12-26,2013-06-24,2012-12-26,2013-06-24,2013-06-24T15:25,NA,NA,NA,NA,NA,NA,NA,NA,NA,NA,NA,NA,2012-12-23,-3,70,YEARS,>64,F,BLACK OR AFRICAN AMERICAN,Non-white,NOT HISPANIC OR LATINO,Y,Placebo,Pbo,Placebo,Pbo,Placebo,Placebo,2012-12-26,2012-12-26T00:00:00Z,H,2013-06-24,2013-06-24T23:59:59Z,H,COMPLETED,2013-06-24,NA,2012-12-26,2013-06-24,181,NA,NA,NA,NA,1942-12-23
CDISCPILOT01,01-705-1292,1292,705,USA,2013-10-14,2014-05-14,2013-10-14,2014-05-13,2014-05-14T13:33,NA,NA,NA,NA,NA,NA,NA,NA,NA,NA,NA,NA,2013-10-11,-3,60,YEARS,18-64,F,BLACK OR AFRICAN AMERICAN,Non-white,NOT HISPANIC OR LATINO,Y,Xanomeline Low Dose,Xan_Lo,Xanomeline Low Dose,Xan_Lo,Xanomeline Low Dose,Xanomeline Low Dose,2013-10-14,2013-10-14T00:00:00Z,H,2014-05-13,2014-05-13T23:59:59Z,H,COMPLETED,2014-05-14,NA,2013-10-14,2014-05-14,212,NA,NA,NA,NA,1953-10-11
CDISCPILOT01,01-705-1303,1303,705,USA,2013-12-16,2014-06-02,2013-12-16,2013-12-30,2014-06-02,NA,NA,NA,NA,NA,NA,NA,NA,NA,NA,NA,NA,2013-12-10,-6,72,YEARS,>64,M,WHITE,White,NOT HISPANIC OR LATINO,Y,Xanomeline High Dose,Xan_Hi,Xanomeline High Dose,Xan_Hi,Xanomeline High Dose,Xanomeline High Dose,2013-12-16,2013-12-16T00:00:00Z,H,2013-12-30,2013-12-30T23:59:59Z,H,DISCONTINUED,2014-06-02,NA,2013-12-16,2014-04-07,15,NA,NA,NA,NA,1941-12-10
CDISCPILOT01,01-705-1310,1310,705,USA,2013-11-02,2014-01-23,2013-11-02,2014-01-23,2014-02-24,NA,NA,NA,NA,NA,NA,NA,NA,NA,NA,NA,NA,2013-10-26,-7,74,YEARS,>64,F,WHITE,White,NOT HISPANIC OR LATINO,Y,Xanomeline High Dose,Xan_Hi,Xanomeline High Dose,Xan_Hi,Xanomeline High Dose,Xanomeline High Dose,2013-11-02,2013-11-02T00:00:00Z,H,2014-01-23,2014-01-23T23:59:59Z,H,DISCONTINUED,2014-01-23,NA,2013-11-02,2014-01-23,83,NA,NA,NA,NA,1939-10-26
CDISCPILOT01,01-705-1349,1349,705,USA,2013-03-10,2013-09-08,2013-03-10,2013-09-08,2013-09-08T10:10,NA,NA,NA,NA,NA,NA,NA,NA,NA,NA,NA,NA,2013-02-24,-14,86,YEARS,>64,F,WHITE,White,HISPANIC OR LATINO,Y,Placebo,Pbo,Placebo,Pbo,Placebo,Placebo,2013-03-10,2013-03-10T00:00:00Z,H,2013-09-08,2013-09-08T23:59:59Z,H,COMPLETED,2013-09-08,NA,2013-03-10,2013-09-08,183,NA,NA,NA,NA,1927-02-24
CDISCPILOT01,01-705-1377,1377,705,USA,2014-01-04,2014-03-07,2014-01-04,2014-01-25,2014-03-07,NA,NA,NA,NA,NA,NA,NA,NA,NA,NA,NA,NA,2013-12-29,-6,63,YEARS,18-64,F,BLACK OR AFRICAN AMERICAN,Non-white,NOT HISPANIC OR LATINO,Y,Xanomeline High Dose,Xan_Hi,Xanomeline High Dose,Xan_Hi,Xanomeline High Dose,Xanomeline High Dose,2014-01-04,2014-01-04T00:00:00Z,H,2014-01-25,2014-01-25T23:59:59Z,H,DISCONTINUED,2014-03-07,NA,2014-01-04,2014-02-07,22,NA,NA,NA,NA,1950-12-29
CDISCPILOT01,01-705-1382,1382,705,USA,2013-05-13,2013-05-13,2013-05-13,NA,2013-05-13,NA,NA,NA,NA,NA,NA,NA,NA,NA,NA,NA,NA,2013-05-09,-4,82,YEARS,>64,M,WHITE,White,NOT HISPANIC OR LATINO,Y,Xanomeline High Dose,Xan_Hi,Xanomeline Low Dose,Xan_Lo,Xanomeline High Dose,Xanomeline Low Dose,2013-05-13,2013-05-13T00:00:00Z,H,NA,NA,NA,DISCONTINUED,2013-05-13,NA,2013-05-13,2013-05-09,NA,NA,NA,NA,NA,1931-05-09
CDISCPILOT01,01-705-1393,1393,705,USA,2012-09-07,2013-02-20,2012-09-07,2013-02-01,2013-04-25,NA,NA,NA,NA,NA,NA,NA,NA,NA,NA,NA,NA,2012-09-02,-5,84,YEARS,>64,F,WHITE,White,NOT HISPANIC OR LATINO,Y,Xanomeline Low Dose,Xan_Lo,Xanomeline Low Dose,Xan_Lo,Xanomeline Low Dose,Xanomeline Low Dose,2012-09-07,2012-09-07T00:00:00Z,H,2013-02-01,2013-02-01T23:59:59Z,H,DISCONTINUED,2013-02-20,NA,2012-09-07,2013-02-20,148,NA,NA,NA,NA,1928-09-02
CDISCPILOT01,01-705-1421,1421,705,USA,NA,NA,NA,NA,2013-01-16,2013-01-14,NA,NA,NA,NA,NA,NA,NA,NA,NA,NA,NA,2013-01-14,NA,87,YEARS,>64,M,WHITE,White,NOT HISPANIC OR LATINO,N,Screen Failure,Scrnfail,Screen Failure,Scrnfail,Screen Failure,Screen Failure,NA,NA,NA,NA,NA,NA,NA,NA,NA,NA,NA,NA,NA,NA,NA,NA,1926-01-14
CDISCPILOT01,01-705-1431,1431,705,USA,2013-06-23,2013-12-19,2013-06-23,2013-12-19,2013-12-19T10:05,NA,NA,NA,NA,NA,NA,NA,NA,NA,NA,NA,NA,2013-06-16,-7,68,YEARS,>64,F,WHITE,White,HISPANIC OR LATINO,Y,Xanomeline Low Dose,Xan_Lo,Xanomeline Low Dose,Xan_Lo,Xanomeline Low Dose,Xanomeline Low Dose,2013-06-23,2013-06-23T00:00:00Z,H,2013-12-19,2013-12-19T23:59:59Z,H,COMPLETED,2013-12-19,NA,2013-06-23,2013-12-19,180,NA,NA,NA,NA,1945-06-16
CDISCPILOT01,01-706-1041,1041,706,USA,2013-12-31,2014-07-29,2013-12-31,2014-07-28,2014-07-29T13:45,NA,NA,NA,NA,NA,NA,NA,NA,NA,NA,NA,NA,2013-12-21,-10,64,YEARS,18-64,F,BLACK OR AFRICAN AMERICAN,Non-white,NOT HISPANIC OR LATINO,Y,Placebo,Pbo,Placebo,Pbo,Placebo,Placebo,2013-12-31,2013-12-31T00:00:00Z,H,2014-07-28,2014-07-28T23:59:59Z,H,COMPLETED,2014-07-29,NA,2013-12-31,2014-07-29,210,NA,NA,NA,NA,1949-12-21
CDISCPILOT01,01-706-1049,1049,706,USA,2013-05-14,2013-06-25,2013-05-14,2013-06-18,2013-11-26,NA,2013-11-26,NA,NA,NA,NA,NA,NA,NA,NA,NA,NA,2013-04-30,-14,60,YEARS,18-64,F,WHITE,White,NOT HISPANIC OR LATINO,Y,Xanomeline High Dose,Xan_Hi,Xanomeline High Dose,Xan_Hi,Xanomeline High Dose,Xanomeline High Dose,2013-05-14,2013-05-14T00:00:00Z,H,2013-06-18,2013-06-18T23:59:59Z,H,DISCONTINUED,2013-06-25,NA,2013-05-14,2013-06-25,36,NA,NA,NA,NA,1953-04-30
CDISCPILOT01,01-706-1384,1384,706,USA,2012-09-15,2012-09-29,2012-09-15,2012-09-24,2013-06-22,NA,2013-06-22,NA,NA,NA,NA,NA,NA,NA,NA,NA,NA,2012-08-25,-21,74,YEARS,>64,F,WHITE,White,NOT HISPANIC OR LATINO,Y,Xanomeline Low Dose,Xan_Lo,Xanomeline Low Dose,Xan_Lo,Xanomeline Low Dose,Xanomeline Low Dose,2012-09-15,2012-09-15T00:00:00Z,H,2012-09-24,2012-09-24T23:59:59Z,H,DISCONTINUED,2012-09-29,NA,2012-09-15,2012-09-29,10,NA,NA,NA,NA,1938-08-25
CDISCPILOT01,01-707-1037,1037,707,USA,2013-12-20,2014-01-08,2013-12-20,2013-12-24,2014-01-08T12:40,NA,NA,NA,NA,NA,NA,NA,NA,NA,NA,NA,NA,2013-12-12,-8,72,YEARS,>64,F,WHITE,White,NOT HISPANIC OR LATINO,Y,Xanomeline Low Dose,Xan_Lo,Xanomeline Low Dose,Xan_Lo,Xanomeline Low Dose,Xanomeline Low Dose,2013-12-20,2013-12-20T00:00:00Z,H,2013-12-24,2013-12-24T23:59:59Z,H,DISCONTINUED,2014-01-08,NA,2013-12-20,2014-01-08,5,NA,NA,NA,NA,1941-12-12
CDISCPILOT01,01-707-1206,1206,707,USA,2013-10-28,2014-04-27,2013-10-28,2014-04-26,2014-04-27T08:00,NA,NA,NA,NA,NA,NA,NA,NA,NA,NA,NA,NA,2013-10-20,-8,65,YEARS,>64,M,WHITE,White,NOT HISPANIC OR LATINO,Y,Placebo,Pbo,Placebo,Pbo,Placebo,Placebo,2013-10-28,2013-10-28T00:00:00Z,H,2014-04-26,2014-04-26T23:59:59Z,H,COMPLETED,2014-04-27,NA,2013-10-28,2014-04-27,181,NA,NA,NA,NA,1948-10-20
CDISCPILOT01,01-707-1276,1276,707,USA,NA,NA,NA,NA,2012-10-29,2012-10-12,NA,NA,NA,NA,NA,NA,NA,NA,NA,NA,NA,2012-10-12,NA,72,YEARS,>64,F,WHITE,White,NOT HISPANIC OR LATINO,N,Screen Failure,Scrnfail,Screen Failure,Scrnfail,Screen Failure,Screen Failure,NA,NA,NA,NA,NA,NA,NA,NA,NA,NA,NA,NA,NA,NA,NA,NA,1940-10-12
CDISCPILOT01,01-707-1430,1430,707,USA,NA,NA,NA,NA,2014-02-15,2014-02-14,NA,NA,NA,NA,NA,NA,NA,NA,NA,NA,NA,2014-02-14,NA,81,YEARS,>64,F,WHITE,White,NOT HISPANIC OR LATINO,N,Screen Failure,Scrnfail,Screen Failure,Scrnfail,Screen Failure,Screen Failure,NA,NA,NA,NA,NA,NA,NA,NA,NA,NA,NA,NA,NA,NA,NA,NA,1933-02-14
CDISCPILOT01,01-707-1434,1434,707,USA,NA,NA,NA,NA,2013-07-29,2013-07-25,NA,NA,NA,NA,NA,NA,NA,NA,NA,NA,NA,2013-07-25,NA,76,YEARS,>64,F,WHITE,White,NOT HISPANIC OR LATINO,N,Screen Failure,Scrnfail,Screen Failure,Scrnfail,Screen Failure,Screen Failure,NA,NA,NA,NA,NA,NA,NA,NA,NA,NA,NA,NA,NA,NA,NA,NA,1937-07-25
CDISCPILOT01,01-708-1013,1013,708,USA,NA,NA,NA,NA,2012-11-09,2012-10-13,NA,NA,NA,NA,NA,NA,NA,NA,NA,NA,NA,2012-10-13,NA,80,YEARS,>64,M,WHITE,White,NOT HISPANIC OR LATINO,N,Screen Failure,Scrnfail,Screen Failure,Scrnfail,Screen Failure,Screen Failure,NA,NA,NA,NA,NA,NA,NA,NA,NA,NA,NA,NA,NA,NA,NA,NA,1932-10-13
CDISCPILOT01,01-708-1019,1019,708,USA,2013-12-20,2014-01-23,2013-12-20,2014-01-01,2014-01-23T10:10,NA,NA,NA,NA,NA,NA,NA,NA,NA,NA,NA,NA,2013-12-10,-10,68,YEARS,>64,M,WHITE,White,NOT HISPANIC OR LATINO,Y,Xanomeline Low Dose,Xan_Lo,Xanomeline Low Dose,Xan_Lo,Xanomeline Low Dose,Xanomeline Low Dose,2013-12-20,2013-12-20T00:00:00Z,H,2014-01-01,2014-01-01T23:59:59Z,H,DISCONTINUED,2014-01-23,NA,2013-12-20,2014-01-23,13,NA,NA,NA,NA,1945-12-10
CDISCPILOT01,01-708-1032,1032,708,USA,2013-02-09,2013-03-09,2013-02-09,2013-03-01,2013-03-09T10:45,NA,NA,NA,NA,NA,NA,NA,NA,NA,NA,NA,NA,2013-02-02,-7,62,YEARS,18-64,M,WHITE,White,NOT HISPANIC OR LATINO,Y,Xanomeline Low Dose,Xan_Lo,Xanomeline Low Dose,Xan_Lo,Xanomeline Low Dose,Xanomeline Low Dose,2013-02-09,2013-02-09T00:00:00Z,H,2013-03-01,2013-03-01T23:59:59Z,H,DISCONTINUED,2013-03-09,NA,2013-02-09,2013-03-09,21,NA,NA,NA,NA,1951-02-02
CDISCPILOT01,01-708-1054,1054,708,USA,NA,NA,NA,NA,2014-03-05,2014-02-14,NA,NA,NA,NA,NA,NA,NA,NA,NA,NA,NA,2014-02-14,NA,73,YEARS,>64,F,BLACK OR AFRICAN AMERICAN,Non-white,NOT HISPANIC OR LATINO,N,Screen Failure,Scrnfail,Screen Failure,Scrnfail,Screen Failure,Screen Failure,NA,NA,NA,NA,NA,NA,NA,NA,NA,NA,NA,NA,NA,NA,NA,NA,1941-02-14
CDISCPILOT01,01-708-1067,1067,708,USA,NA,NA,NA,NA,2013-03-07,2013-02-07,NA,NA,NA,NA,NA,NA,NA,NA,NA,NA,NA,2013-02-07,NA,88,YEARS,>64,M,WHITE,White,NOT HISPANIC OR LATINO,N,Screen Failure,Scrnfail,Screen Failure,Scrnfail,Screen Failure,Screen Failure,NA,NA,NA,NA,NA,NA,NA,NA,NA,NA,NA,NA,NA,NA,NA,NA,1925-02-07
CDISCPILOT01,01-708-1084,1084,708,USA,2013-05-09,2013-11-11,2013-05-09,2013-11-11,2013-11-11T10:00,NA,NA,NA,NA,NA,NA,NA,NA,NA,NA,NA,NA,2013-05-01,-8,73,YEARS,>64,F,WHITE,White,NOT HISPANIC OR LATINO,Y,Xanomeline Low Dose,Xan_Lo,Xanomeline Low Dose,Xan_Lo,Xanomeline Low Dose,Xanomeline Low Dose,2013-05-09,2013-05-09T00:00:00Z,H,2013-11-11,2013-11-11T23:59:59Z,H,COMPLETED,2013-11-11,NA,2013-05-09,2013-11-11,187,NA,NA,NA,NA,1940-05-01
CDISCPILOT01,01-708-1087,1087,708,USA,2012-10-22,2013-04-28,2012-10-22,2013-04-28,2013-04-28T12:40,NA,NA,NA,NA,NA,NA,NA,NA,NA,NA,NA,NA,2012-10-06,-16,74,YEARS,>64,F,WHITE,White,NOT HISPANIC OR LATINO,Y,Placebo,Pbo,Placebo,Pbo,Placebo,Placebo,2012-10-22,2012-10-22T00:00:00Z,H,2013-04-28,2013-04-28T23:59:59Z,H,COMPLETED,2013-04-28,NA,2012-10-22,2013-04-28,189,NA,NA,NA,NA,1938-10-06
CDISCPILOT01,01-708-1104,1104,708,USA,NA,NA,NA,NA,2014-01-23,2014-01-23,NA,NA,NA,NA,NA,NA,NA,NA,NA,NA,NA,2014-01-23,NA,78,YEARS,>64,F,ASIAN,Non-white,NOT HISPANIC OR LATINO,N,Screen Failure,Scrnfail,Screen Failure,Scrnfail,Screen Failure,Screen Failure,NA,NA,NA,NA,NA,NA,NA,NA,NA,NA,NA,NA,NA,NA,NA,NA,1936-01-23
CDISCPILOT01,01-708-1158,1158,708,USA,2014-02-08,2014-03-22,2014-02-08,2014-03-21,2014-03-22T11:15,NA,NA,NA,NA,NA,NA,NA,NA,NA,NA,NA,NA,2014-02-01,-7,81,YEARS,>64,F,WHITE,White,NOT HISPANIC OR LATINO,Y,Placebo,Pbo,Placebo,Pbo,Placebo,Placebo,2014-02-08,2014-02-08T00:00:00Z,H,2014-03-21,2014-03-21T23:59:59Z,H,DISCONTINUED,2014-03-22,NA,2014-02-08,2014-03-22,42,NA,NA,NA,NA,1933-02-01
CDISCPILOT01,01-708-1171,1171,708,USA,2012-12-06,2013-06-04,2012-12-06,2013-06-04,2013-06-04,NA,NA,NA,NA,NA,NA,NA,NA,NA,NA,NA,NA,2012-11-25,-11,77,YEARS,>64,F,WHITE,White,NOT HISPANIC OR LATINO,Y,Placebo,Pbo,Placebo,Pbo,Placebo,Placebo,2012-12-06,2012-12-06T00:00:00Z,H,2013-06-04,2013-06-04T23:59:59Z,H,COMPLETED,2013-06-04,NA,2012-12-06,2013-06-04,181,NA,NA,NA,NA,1935-11-25
CDISCPILOT01,01-708-1178,1178,708,USA,2013-12-29,2014-04-06,2013-12-29,2014-04-06,2014-04-06T08:50,NA,NA,NA,NA,NA,NA,NA,NA,NA,NA,NA,NA,2013-12-13,-16,77,YEARS,>64,F,BLACK OR AFRICAN AMERICAN,Non-white,NOT HISPANIC OR LATINO,Y,Xanomeline High Dose,Xan_Hi,Xanomeline High Dose,Xan_Hi,Xanomeline High Dose,Xanomeline High Dose,2013-12-29,2013-12-29T00:00:00Z,H,2014-04-06,2014-04-06T23:59:59Z,H,DISCONTINUED,2014-04-06,NA,2013-12-29,2014-04-06,99,NA,NA,NA,NA,1936-12-13
CDISCPILOT01,01-708-1184,1184,708,USA,NA,NA,NA,NA,2013-02-03,2013-01-14,NA,NA,NA,NA,NA,NA,NA,NA,NA,NA,NA,2013-01-14,NA,70,YEARS,>64,F,WHITE,White,NOT HISPANIC OR LATINO,N,Screen Failure,Scrnfail,Screen Failure,Scrnfail,Screen Failure,Screen Failure,NA,NA,NA,NA,NA,NA,NA,NA,NA,NA,NA,NA,NA,NA,NA,NA,1943-01-14
CDISCPILOT01,01-708-1213,1213,708,USA,2013-02-09,2013-02-26,2013-02-09,2013-02-22,2013-02-26,NA,NA,NA,NA,NA,NA,NA,NA,NA,NA,NA,NA,2013-02-01,-8,76,YEARS,>64,F,WHITE,White,NOT HISPANIC OR LATINO,Y,Xanomeline High Dose,Xan_Hi,Xanomeline Low Dose,Xan_Lo,Xanomeline High Dose,Xanomeline Low Dose,2013-02-09,2013-02-09T00:00:00Z,H,2013-02-22,2013-02-22T23:59:59Z,H,DISCONTINUED,2013-02-26,NA,2013-02-09,2013-02-22,14,NA,NA,NA,NA,1937-02-01
CDISCPILOT01,01-708-1216,1216,708,USA,2012-10-24,2012-12-06,2012-10-24,2012-11-29,2013-01-09,NA,NA,NA,NA,NA,NA,NA,NA,NA,NA,NA,NA,2012-10-14,-10,78,YEARS,>64,M,WHITE,White,NOT HISPANIC OR LATINO,Y,Xanomeline High Dose,Xan_Hi,Xanomeline High Dose,Xan_Hi,Xanomeline High Dose,Xanomeline High Dose,2012-10-24,2012-10-24T00:00:00Z,H,2012-11-29,2012-11-29T23:59:59Z,H,DISCONTINUED,2012-12-06,NA,2012-10-24,2012-12-13,37,NA,NA,NA,NA,1934-10-14
CDISCPILOT01,01-708-1236,1236,708,USA,2013-09-21,2013-09-26,2013-09-21,2013-09-21,2013-09-26,NA,NA,NA,NA,NA,NA,NA,NA,NA,NA,NA,NA,2013-09-08,-13,86,YEARS,>64,F,WHITE,White,NOT HISPANIC OR LATINO,Y,Xanomeline High Dose,Xan_Hi,Xanomeline Low Dose,Xan_Lo,Xanomeline High Dose,Xanomeline Low Dose,2013-09-21,2013-09-21T00:00:00Z,H,2013-09-21,2013-09-21T23:59:59Z,H,DISCONTINUED,2013-09-26,NA,2013-09-21,2013-09-21,1,NA,NA,NA,NA,1927-09-08
CDISCPILOT01,01-708-1242,1242,708,USA,NA,NA,NA,NA,2012-08-13,2012-08-13,NA,NA,NA,NA,NA,NA,NA,NA,NA,NA,NA,2012-08-13,NA,80,YEARS,>64,M,WHITE,White,NOT HISPANIC OR LATINO,N,Screen Failure,Scrnfail,Screen Failure,Scrnfail,Screen Failure,Screen Failure,NA,NA,NA,NA,NA,NA,NA,NA,NA,NA,NA,NA,NA,NA,NA,NA,1932-08-13
CDISCPILOT01,01-708-1253,1253,708,USA,2013-05-07,2013-11-05,2013-05-07,2013-11-05,2013-11-05,NA,NA,NA,NA,NA,NA,NA,NA,NA,NA,NA,NA,2013-04-26,-11,61,YEARS,18-64,M,WHITE,White,NOT HISPANIC OR LATINO,Y,Placebo,Pbo,Placebo,Pbo,Placebo,Placebo,2013-05-07,2013-05-07T00:00:00Z,H,2013-11-05,2013-11-05T23:59:59Z,H,COMPLETED,2013-11-05,NA,2013-05-07,2013-11-05,183,NA,NA,NA,NA,1952-04-26
CDISCPILOT01,01-708-1272,1272,708,USA,2013-02-06,2013-04-04,2013-02-06,2013-03-22,2013-04-04T11:05,NA,NA,NA,NA,NA,NA,NA,NA,NA,NA,NA,NA,2013-01-22,-15,82,YEARS,>64,M,WHITE,White,NOT HISPANIC OR LATINO,Y,Xanomeline Low Dose,Xan_Lo,Xanomeline Low Dose,Xan_Lo,Xanomeline Low Dose,Xanomeline Low Dose,2013-02-06,2013-02-06T00:00:00Z,H,2013-03-22,2013-03-22T23:59:59Z,H,DISCONTINUED,2013-04-04,NA,2013-02-06,2013-04-04,45,NA,NA,NA,NA,1931-01-22
CDISCPILOT01,01-708-1286,1286,708,USA,2013-09-10,2014-03-08,2013-09-10,2014-03-08,2014-03-08T09:50,NA,NA,NA,NA,NA,NA,NA,NA,NA,NA,NA,NA,2013-08-25,-16,80,YEARS,>64,F,BLACK OR AFRICAN AMERICAN,Non-white,NOT HISPANIC OR LATINO,Y,Placebo,Pbo,Placebo,Pbo,Placebo,Placebo,2013-09-10,2013-09-10T00:00:00Z,H,2014-03-08,2014-03-08T23:59:59Z,H,COMPLETED,2014-03-08,NA,2013-09-10,2014-03-08,180,NA,NA,NA,NA,1933-08-25
CDISCPILOT01,01-708-1296,1296,708,USA,2013-06-14,2013-12-12,2013-06-14,2013-12-12,2013-12-12T09:30,NA,NA,NA,NA,NA,NA,NA,NA,NA,NA,NA,NA,2013-06-07,-7,57,YEARS,18-64,M,BLACK OR AFRICAN AMERICAN,Non-white,NOT HISPANIC OR LATINO,Y,Placebo,Pbo,Placebo,Pbo,Placebo,Placebo,2013-06-14,2013-06-14T00:00:00Z,H,2013-12-12,2013-12-12T23:59:59Z,H,COMPLETED,2013-12-12,NA,2013-06-14,2013-12-12,182,NA,NA,NA,NA,1956-06-07
CDISCPILOT01,01-708-1297,1297,708,USA,2013-01-25,2013-05-08,2013-01-25,2013-05-03,2013-06-07,NA,NA,NA,NA,NA,NA,NA,NA,NA,NA,NA,NA,2013-01-15,-10,61,YEARS,18-64,M,WHITE,White,NOT HISPANIC OR LATINO,Y,Xanomeline Low Dose,Xan_Lo,Xanomeline Low Dose,Xan_Lo,Xanomeline Low Dose,Xanomeline Low Dose,2013-01-25,2013-01-25T00:00:00Z,H,2013-05-03,2013-05-03T23:59:59Z,H,DISCONTINUED,2013-05-08,NA,2013-01-25,2013-05-08,99,NA,NA,NA,NA,1952-01-15
CDISCPILOT01,01-708-1316,1316,708,USA,2013-08-23,2014-03-01,2013-08-23,2014-03-01,2014-03-01T10:25,NA,NA,NA,NA,NA,NA,NA,NA,NA,NA,NA,NA,2013-08-15,-8,74,YEARS,>64,F,WHITE,White,NOT HISPANIC OR LATINO,Y,Placebo,Pbo,Placebo,Pbo,Placebo,Placebo,2013-08-23,2013-08-23T00:00:00Z,H,2014-03-01,2014-03-01T23:59:59Z,H,COMPLETED,2014-03-01,NA,2013-08-23,2014-03-01,191,NA,NA,NA,NA,1939-08-15
CDISCPILOT01,01-708-1336,1336,708,USA,2012-12-07,2013-06-05,2012-12-07,2013-06-05,2013-07-05,NA,NA,NA,NA,NA,NA,NA,NA,NA,NA,NA,NA,2012-11-21,-16,73,YEARS,>64,M,WHITE,White,NOT HISPANIC OR LATINO,Y,Xanomeline High Dose,Xan_Hi,Xanomeline High Dose,Xan_Hi,Xanomeline High Dose,Xanomeline High Dose,2012-12-07,2012-12-07T00:00:00Z,H,2013-06-05,2013-06-05T23:59:59Z,H,COMPLETED,2013-06-05,NA,2012-12-07,2013-06-05,181,NA,NA,NA,NA,1939-11-21
CDISCPILOT01,01-708-1342,1342,708,USA,2012-12-29,2013-06-28,2012-12-29,2013-06-28,2013-06-28T09:40,NA,NA,NA,NA,NA,NA,NA,NA,NA,NA,NA,NA,2012-12-21,-8,59,YEARS,18-64,F,WHITE,White,NOT HISPANIC OR LATINO,Y,Placebo,Pbo,Placebo,Pbo,Placebo,Placebo,2012-12-29,2012-12-29T00:00:00Z,H,2013-06-28,2013-06-28T23:59:59Z,H,COMPLETED,2013-06-28,NA,2012-12-29,2013-06-28,182,NA,NA,NA,NA,1953-12-21
CDISCPILOT01,01-708-1347,1347,708,USA,2013-04-20,2013-06-18,2013-04-20,2013-06-18,2013-08-02,NA,NA,NA,NA,NA,NA,NA,NA,NA,NA,NA,NA,2013-04-11,-9,61,YEARS,18-64,F,WHITE,White,NOT HISPANIC OR LATINO,Y,Xanomeline High Dose,Xan_Hi,Xanomeline High Dose,Xan_Hi,Xanomeline High Dose,Xanomeline High Dose,2013-04-20,2013-04-20T00:00:00Z,H,2013-06-18,2013-06-18T23:59:59Z,H,DISCONTINUED,2013-06-18,NA,2013-04-20,2013-06-25,60,NA,NA,NA,NA,1952-04-11
CDISCPILOT01,01-708-1348,1348,708,USA,2013-08-05,2014-02-13,2013-08-05,2014-02-13,2014-02-13T10:25,NA,NA,NA,NA,NA,NA,NA,NA,NA,NA,NA,NA,2013-07-28,-8,79,YEARS,>64,F,WHITE,White,NOT HISPANIC OR LATINO,Y,Xanomeline Low Dose,Xan_Lo,Xanomeline Low Dose,Xan_Lo,Xanomeline Low Dose,Xanomeline Low Dose,2013-08-05,2013-08-05T00:00:00Z,H,2014-02-13,2014-02-13T23:59:59Z,H,COMPLETED,2014-02-13,NA,2013-08-05,2014-02-13,193,NA,NA,NA,NA,1934-07-28
CDISCPILOT01,01-708-1352,1352,708,USA,NA,NA,NA,NA,2013-09-29,2013-09-16,NA,NA,NA,NA,NA,NA,NA,NA,NA,NA,NA,2013-09-16,NA,87,YEARS,>64,F,WHITE,White,NOT HISPANIC OR LATINO,N,Screen Failure,Scrnfail,Screen Failure,Scrnfail,Screen Failure,Screen Failure,NA,NA,NA,NA,NA,NA,NA,NA,NA,NA,NA,NA,NA,NA,NA,NA,1926-09-16
CDISCPILOT01,01-708-1353,1353,708,USA,2013-07-04,2013-09-10,2013-07-04,2013-08-28,2013-09-10T13:15,NA,NA,NA,NA,NA,NA,NA,NA,NA,NA,NA,NA,2013-06-17,-17,87,YEARS,>64,F,BLACK OR AFRICAN AMERICAN,Non-white,NOT HISPANIC OR LATINO,Y,Xanomeline Low Dose,Xan_Lo,Xanomeline Low Dose,Xan_Lo,Xanomeline Low Dose,Xanomeline Low Dose,2013-07-04,2013-07-04T00:00:00Z,H,2013-08-28,2013-08-28T23:59:59Z,H,DISCONTINUED,2013-09-10,NA,2013-07-04,2013-09-10,56,NA,NA,NA,NA,1926-06-17
CDISCPILOT01,01-708-1372,1372,708,USA,2013-04-12,2013-05-10,2013-04-12,2013-04-19,2013-05-10,NA,NA,NA,NA,NA,NA,NA,NA,NA,NA,NA,NA,2013-04-03,-9,84,YEARS,>64,M,WHITE,White,NOT HISPANIC OR LATINO,Y,Xanomeline High Dose,Xan_Hi,Xanomeline Low Dose,Xan_Lo,Xanomeline High Dose,Xanomeline Low Dose,2013-04-12,2013-04-12T00:00:00Z,H,2013-04-19,2013-04-19T23:59:59Z,H,DISCONTINUED,2013-05-10,NA,2013-04-12,2013-04-19,8,NA,NA,NA,NA,1929-04-03
CDISCPILOT01,01-708-1378,1378,708,USA,2013-09-03,2014-01-28,2013-09-03,2014-01-28,2014-01-28T13:00,NA,NA,NA,NA,NA,NA,NA,NA,NA,NA,NA,NA,2013-08-24,-10,67,YEARS,>64,M,BLACK OR AFRICAN AMERICAN,Non-white,NOT HISPANIC OR LATINO,Y,Placebo,Pbo,Placebo,Pbo,Placebo,Placebo,2013-09-03,2013-09-03T00:00:00Z,H,2014-01-28,2014-01-28T23:59:59Z,H,DISCONTINUED,2014-01-28,NA,2013-09-03,2014-01-28,148,NA,NA,NA,NA,1946-08-24
CDISCPILOT01,01-708-1406,1406,708,USA,2013-12-26,2014-07-02,2013-12-26,2014-07-02,2014-07-02T13:45,NA,NA,NA,NA,NA,NA,NA,NA,NA,NA,NA,NA,2013-12-06,-20,71,YEARS,>64,F,WHITE,White,NOT HISPANIC OR LATINO,Y,Xanomeline High Dose,Xan_Hi,Xanomeline High Dose,Xan_Hi,Xanomeline High Dose,Xanomeline High Dose,2013-12-26,2013-12-26T00:00:00Z,H,2014-07-02,2014-07-02T23:59:59Z,H,COMPLETED,2014-07-02,NA,2013-12-26,2014-07-02,189,NA,NA,NA,NA,1942-12-06
CDISCPILOT01,01-708-1428,1428,708,USA,2013-11-09,2014-01-31,2013-11-09,2013-12-14,2014-01-31T11:10,NA,NA,NA,NA,NA,NA,NA,NA,NA,NA,NA,NA,2013-11-02,-7,84,YEARS,>64,F,WHITE,White,NOT HISPANIC OR LATINO,Y,Xanomeline Low Dose,Xan_Lo,Xanomeline Low Dose,Xan_Lo,Xanomeline Low Dose,Xanomeline Low Dose,2013-11-09,2013-11-09T00:00:00Z,H,2013-12-14,2013-12-14T23:59:59Z,H,DISCONTINUED,2014-01-31,NA,2013-11-09,2014-01-31,36,NA,NA,NA,NA,1929-11-02
CDISCPILOT01,01-709-1001,1001,709,USA,2013-10-08,2014-04-08,2013-10-08,2014-04-08,2014-04-08,NA,NA,NA,NA,NA,NA,NA,NA,NA,NA,NA,NA,2013-09-20,-18,76,YEARS,>64,F,WHITE,White,NOT HISPANIC OR LATINO,Y,Placebo,Pbo,Placebo,Pbo,Placebo,Placebo,2013-10-08,2013-10-08T00:00:00Z,H,2014-04-08,2014-04-08T23:59:59Z,H,COMPLETED,2014-04-08,NA,2013-10-08,2014-04-08,183,NA,NA,NA,NA,1937-09-20
CDISCPILOT01,01-709-1007,1007,709,USA,2012-07-31,2012-09-01,2012-07-31,2012-08-28,2012-09-07,NA,NA,NA,NA,NA,NA,NA,NA,NA,NA,NA,NA,2012-07-21,-10,54,YEARS,18-64,F,WHITE,White,NOT HISPANIC OR LATINO,Y,Xanomeline Low Dose,Xan_Lo,Xanomeline Low Dose,Xan_Lo,Xanomeline Low Dose,Xanomeline Low Dose,2012-07-31,2012-07-31T00:00:00Z,H,2012-08-28,2012-08-28T23:59:59Z,H,DISCONTINUED,2012-09-01,NA,2012-07-31,2012-09-01,29,NA,NA,NA,NA,1958-07-21
CDISCPILOT01,01-709-1020,1020,709,USA,2012-12-01,2013-06-01,2012-12-01,2013-06-01,2013-06-01T10:40,NA,NA,NA,NA,NA,NA,NA,NA,NA,NA,NA,NA,2012-11-22,-9,72,YEARS,>64,F,WHITE,White,NOT HISPANIC OR LATINO,Y,Xanomeline Low Dose,Xan_Lo,Xanomeline Low Dose,Xan_Lo,Xanomeline Low Dose,Xanomeline Low Dose,2012-12-01,2012-12-01T00:00:00Z,H,2013-06-01,2013-06-01T23:59:59Z,H,COMPLETED,2013-06-01,NA,2012-12-01,2013-06-01,183,NA,NA,NA,NA,1940-11-22
CDISCPILOT01,01-709-1029,1029,709,USA,2012-12-25,2013-06-26,2012-12-25,2013-06-26,2013-06-26T10:58,NA,NA,NA,NA,NA,NA,NA,NA,NA,NA,NA,NA,2012-12-10,-15,82,YEARS,>64,M,WHITE,White,NOT HISPANIC OR LATINO,Y,Xanomeline High Dose,Xan_Hi,Xanomeline High Dose,Xan_Hi,Xanomeline High Dose,Xanomeline High Dose,2012-12-25,2012-12-25T00:00:00Z,H,2013-06-26,2013-06-26T23:59:59Z,H,COMPLETED,2013-06-26,NA,2012-12-25,2013-06-26,184,NA,NA,NA,NA,1930-12-10
CDISCPILOT01,01-709-1081,1081,709,USA,2014-01-18,2014-05-10,2014-01-18,2014-04-27,2014-05-10T11:15,NA,NA,NA,NA,NA,NA,NA,NA,NA,NA,NA,NA,2014-01-09,-9,86,YEARS,>64,F,WHITE,White,NOT HISPANIC OR LATINO,Y,Xanomeline Low Dose,Xan_Lo,Xanomeline Low Dose,Xan_Lo,Xanomeline Low Dose,Xanomeline Low Dose,2014-01-18,2014-01-18T00:00:00Z,H,2014-04-27,2014-04-27T23:59:59Z,H,DISCONTINUED,2014-05-10,NA,2014-01-18,2014-05-10,100,NA,NA,NA,NA,1928-01-09
CDISCPILOT01,01-709-1088,1088,709,USA,2014-04-12,2014-10-09,2014-04-12,2014-10-09,2014-10-09T13:25,NA,NA,NA,NA,NA,NA,NA,NA,NA,NA,NA,NA,2014-03-30,-13,69,YEARS,>64,M,WHITE,White,NOT HISPANIC OR LATINO,Y,Placebo,Pbo,Placebo,Pbo,Placebo,Placebo,2014-04-12,2014-04-12T00:00:00Z,H,2014-10-09,2014-10-09T23:59:59Z,H,COMPLETED,2014-10-09,NA,2014-04-12,2014-10-09,181,NA,NA,NA,NA,1945-03-30
CDISCPILOT01,01-709-1099,1099,709,USA,2013-10-25,2014-04-25,2013-10-25,2014-04-25,2014-04-25T09:10,NA,NA,NA,NA,NA,NA,NA,NA,NA,NA,NA,NA,2013-10-14,-11,79,YEARS,>64,F,WHITE,White,NOT HISPANIC OR LATINO,Y,Xanomeline High Dose,Xan_Hi,Xanomeline High Dose,Xan_Hi,Xanomeline High Dose,Xanomeline High Dose,2013-10-25,2013-10-25T00:00:00Z,H,2014-04-25,2014-04-25T23:59:59Z,H,COMPLETED,2014-04-25,NA,2013-10-25,2014-04-25,183,NA,NA,NA,NA,1934-10-14
CDISCPILOT01,01-709-1102,1102,709,USA,2013-01-15,2013-03-31,2013-01-15,2013-03-27,2013-05-12,NA,NA,NA,NA,NA,NA,NA,NA,NA,NA,NA,NA,2013-01-07,-8,71,YEARS,>64,F,WHITE,White,NOT HISPANIC OR LATINO,Y,Xanomeline Low Dose,Xan_Lo,Xanomeline Low Dose,Xan_Lo,Xanomeline Low Dose,Xanomeline Low Dose,2013-01-15,2013-01-15T00:00:00Z,H,2013-03-27,2013-03-27T23:59:59Z,H,DISCONTINUED,2013-03-31,NA,2013-01-15,2013-03-31,72,NA,NA,NA,NA,1942-01-07
CDISCPILOT01,01-709-1168,1168,709,USA,2013-08-02,2013-09-27,2013-08-02,2013-09-26,2013-11-01,NA,NA,NA,NA,NA,NA,NA,NA,NA,NA,NA,NA,2013-07-25,-8,72,YEARS,>64,F,WHITE,White,NOT HISPANIC OR LATINO,Y,Xanomeline High Dose,Xan_Hi,Xanomeline High Dose,Xan_Hi,Xanomeline High Dose,Xanomeline High Dose,2013-08-02,2013-08-02T00:00:00Z,H,2013-09-26,2013-09-26T23:59:59Z,H,DISCONTINUED,2013-09-27,NA,2013-08-02,2013-10-11,56,NA,NA,NA,NA,1941-07-25
CDISCPILOT01,01-709-1217,1217,709,USA,2013-03-04,2013-06-25,2013-03-04,2013-06-11,2013-06-25T10:35,NA,NA,NA,NA,NA,NA,NA,NA,NA,NA,NA,NA,2013-02-16,-16,77,YEARS,>64,M,WHITE,White,NOT HISPANIC OR LATINO,Y,Xanomeline Low Dose,Xan_Lo,Xanomeline Low Dose,Xan_Lo,Xanomeline Low Dose,Xanomeline Low Dose,2013-03-04,2013-03-04T00:00:00Z,H,2013-06-11,2013-06-11T23:59:59Z,H,DISCONTINUED,2013-06-25,NA,2013-03-04,2013-06-25,100,NA,NA,NA,NA,1936-02-16
CDISCPILOT01,01-709-1224,1224,709,USA,NA,NA,NA,NA,2013-11-24,2013-11-18,NA,NA,NA,NA,NA,NA,NA,NA,NA,NA,NA,2013-11-18,NA,84,YEARS,>64,M,WHITE,White,NOT HISPANIC OR LATINO,N,Screen Failure,Scrnfail,Screen Failure,Scrnfail,Screen Failure,Screen Failure,NA,NA,NA,NA,NA,NA,NA,NA,NA,NA,NA,NA,NA,NA,NA,NA,1929-11-18
CDISCPILOT01,01-709-1237,1237,709,USA,NA,NA,NA,NA,2014-03-04,2014-01-17,NA,NA,NA,NA,NA,NA,NA,NA,NA,NA,NA,2014-01-17,NA,88,YEARS,>64,F,WHITE,White,HISPANIC OR LATINO,N,Screen Failure,Scrnfail,Screen Failure,Scrnfail,Screen Failure,Screen Failure,NA,NA,NA,NA,NA,NA,NA,NA,NA,NA,NA,NA,NA,NA,NA,NA,1926-01-17
CDISCPILOT01,01-709-1238,1238,709,USA,2013-05-15,2013-08-07,2013-05-15,2013-08-06,2013-08-13,NA,NA,NA,NA,NA,NA,NA,NA,NA,NA,NA,NA,2013-05-02,-13,69,YEARS,>64,M,WHITE,White,NOT HISPANIC OR LATINO,Y,Xanomeline High Dose,Xan_Hi,Xanomeline High Dose,Xan_Hi,Xanomeline High Dose,Xanomeline High Dose,2013-05-15,2013-05-15T00:00:00Z,H,2013-08-06,2013-08-06T23:59:59Z,H,DISCONTINUED,2013-08-07,NA,2013-05-15,2013-08-07,84,NA,NA,NA,NA,1944-05-02
CDISCPILOT01,01-709-1259,1259,709,USA,2013-01-26,2013-06-13,2013-01-26,2013-06-13,2013-06-13T12:23,NA,NA,NA,NA,NA,NA,NA,NA,NA,NA,NA,NA,2013-01-13,-13,82,YEARS,>64,M,WHITE,White,NOT HISPANIC OR LATINO,Y,Placebo,Pbo,Placebo,Pbo,Placebo,Placebo,2013-01-26,2013-01-26T00:00:00Z,H,2013-06-13,2013-06-13T23:59:59Z,H,DISCONTINUED,2013-06-13,NA,2013-01-26,2013-06-13,139,NA,NA,NA,NA,1931-01-13
CDISCPILOT01,01-709-1285,1285,709,USA,2013-03-24,2013-05-31,2013-03-24,2013-05-23,2013-05-31T13:15,NA,NA,NA,NA,NA,NA,NA,NA,NA,NA,NA,NA,2013-03-17,-7,87,YEARS,>64,M,WHITE,White,NOT HISPANIC OR LATINO,Y,Xanomeline Low Dose,Xan_Lo,Xanomeline Low Dose,Xan_Lo,Xanomeline Low Dose,Xanomeline Low Dose,2013-03-24,2013-03-24T00:00:00Z,H,2013-05-23,2013-05-23T23:59:59Z,H,DISCONTINUED,2013-05-31,NA,2013-03-24,2013-05-31,61,NA,NA,NA,NA,1926-03-17
CDISCPILOT01,01-709-1301,1301,709,USA,2013-07-19,2014-01-17,2013-07-19,2014-01-17,2014-01-17T10:07,NA,NA,NA,NA,NA,NA,NA,NA,NA,NA,NA,NA,2013-07-14,-5,62,YEARS,18-64,F,WHITE,White,NOT HISPANIC OR LATINO,Y,Placebo,Pbo,Placebo,Pbo,Placebo,Placebo,2013-07-19,2013-07-19T00:00:00Z,H,2014-01-17,2014-01-17T23:59:59Z,H,COMPLETED,2014-01-17,NA,2013-07-19,2014-01-17,183,NA,NA,NA,NA,1951-07-14
CDISCPILOT01,01-709-1306,1306,709,USA,2014-02-03,2014-06-25,2014-02-03,2014-06-16,2014-06-25T10:45,NA,NA,NA,NA,NA,NA,NA,NA,NA,NA,NA,NA,2014-01-19,-15,60,YEARS,18-64,F,WHITE,White,NOT HISPANIC OR LATINO,Y,Placebo,Pbo,Placebo,Pbo,Placebo,Placebo,2014-02-03,2014-02-03T00:00:00Z,H,2014-06-16,2014-06-16T23:59:59Z,H,DISCONTINUED,2014-06-25,NA,2014-02-03,2014-06-25,134,NA,NA,NA,NA,1954-01-19
CDISCPILOT01,01-709-1309,1309,709,USA,2013-06-19,2013-12-19,2013-06-19,2013-12-19,2013-12-19T10:35,NA,NA,NA,NA,NA,NA,NA,NA,NA,NA,NA,NA,2013-06-09,-10,65,YEARS,>64,M,WHITE,White,NOT HISPANIC OR LATINO,Y,Xanomeline High Dose,Xan_Hi,Xanomeline High Dose,Xan_Hi,Xanomeline High Dose,Xanomeline High Dose,2013-06-19,2013-06-19T00:00:00Z,H,2013-12-19,2013-12-19T23:59:59Z,H,COMPLETED,2013-12-19,NA,2013-06-19,2013-12-19,184,NA,NA,NA,NA,1948-06-09
CDISCPILOT01,01-709-1312,1312,709,USA,2014-04-20,2014-10-19,2014-04-20,2014-10-19,2014-10-19T10:00,NA,NA,NA,NA,NA,NA,NA,NA,NA,NA,NA,NA,2014-04-13,-7,68,YEARS,>64,F,WHITE,White,NOT HISPANIC OR LATINO,Y,Placebo,Pbo,Placebo,Pbo,Placebo,Placebo,2014-04-20,2014-04-20T00:00:00Z,H,2014-10-19,2014-10-19T23:59:59Z,H,COMPLETED,2014-10-19,NA,2014-04-20,2014-10-19,183,NA,NA,NA,NA,1946-04-13
CDISCPILOT01,01-709-1326,1326,709,USA,2013-04-05,2013-10-02,2013-04-05,2013-10-02,2013-10-02T09:40,NA,NA,NA,NA,NA,NA,NA,NA,NA,NA,NA,NA,2013-03-21,-15,75,YEARS,>64,F,WHITE,White,NOT HISPANIC OR LATINO,Y,Xanomeline Low Dose,Xan_Lo,Xanomeline Low Dose,Xan_Lo,Xanomeline Low Dose,Xanomeline Low Dose,2013-04-05,2013-04-05T00:00:00Z,H,2013-10-02,2013-10-02T23:59:59Z,H,COMPLETED,2013-10-02,NA,2013-04-05,2013-10-02,181,NA,NA,NA,NA,1938-03-21
CDISCPILOT01,01-709-1329,1329,709,USA,2013-08-15,2013-08-29,2013-08-15,2013-08-25,2013-08-29T10:35,NA,NA,NA,NA,NA,NA,NA,NA,NA,NA,NA,NA,2013-08-01,-14,70,YEARS,>64,M,WHITE,White,NOT HISPANIC OR LATINO,Y,Xanomeline High Dose,Xan_Hi,Xanomeline Low Dose,Xan_Lo,Xanomeline High Dose,Xanomeline Low Dose,2013-08-15,2013-08-15T00:00:00Z,H,2013-08-25,2013-08-25T23:59:59Z,H,DISCONTINUED,2013-08-29,NA,2013-08-15,2013-08-29,11,NA,NA,NA,NA,1943-08-01
CDISCPILOT01,01-709-1339,1339,709,USA,2012-12-23,2013-06-24,2012-12-23,2013-06-24,2013-06-24T10:10,NA,NA,NA,NA,NA,NA,NA,NA,NA,NA,NA,NA,2012-12-15,-8,81,YEARS,>64,M,WHITE,White,NOT HISPANIC OR LATINO,Y,Placebo,Pbo,Placebo,Pbo,Placebo,Placebo,2012-12-23,2012-12-23T00:00:00Z,H,2013-06-24,2013-06-24T23:59:59Z,H,COMPLETED,2013-06-24,NA,2012-12-23,2013-06-24,184,NA,NA,NA,NA,1931-12-15
CDISCPILOT01,01-709-1424,1424,709,USA,2013-03-03,2013-03-08,2013-03-03,2013-03-07,2013-03-17,NA,NA,NA,NA,NA,NA,NA,NA,NA,NA,NA,NA,2013-02-15,-16,77,YEARS,>64,M,WHITE,White,NOT HISPANIC OR LATINO,Y,Xanomeline High Dose,Xan_Hi,Xanomeline Low Dose,Xan_Lo,Xanomeline High Dose,Xanomeline Low Dose,2013-03-03,2013-03-03T00:00:00Z,H,2013-03-07,2013-03-07T23:59:59Z,H,DISCONTINUED,2013-03-08,NA,2013-03-03,2013-03-17,5,NA,NA,NA,NA,1936-02-15
CDISCPILOT01,01-710-1002,1002,710,USA,2014-01-14,2014-01-18,2014-01-14,2014-01-18,2014-01-20,NA,NA,NA,NA,NA,NA,NA,NA,NA,NA,NA,NA,2013-12-30,-15,88,YEARS,>64,M,WHITE,White,NOT HISPANIC OR LATINO,Y,Xanomeline Low Dose,Xan_Lo,Xanomeline Low Dose,Xan_Lo,Xanomeline Low Dose,Xanomeline Low Dose,2014-01-14,2014-01-14T00:00:00Z,H,2014-01-18,2014-01-18T23:59:59Z,H,DISCONTINUED,2014-01-18,NA,2014-01-14,2014-01-20,5,NA,NA,NA,NA,1925-12-30
CDISCPILOT01,01-710-1006,1006,710,USA,2013-02-10,2013-08-10,2013-02-10,2013-08-09,2013-08-10T10:10,NA,NA,NA,NA,NA,NA,NA,NA,NA,NA,NA,NA,2013-01-27,-14,77,YEARS,>64,M,WHITE,White,NOT HISPANIC OR LATINO,Y,Xanomeline High Dose,Xan_Hi,Xanomeline High Dose,Xan_Hi,Xanomeline High Dose,Xanomeline High Dose,2013-02-10,2013-02-10T00:00:00Z,H,2013-08-09,2013-08-09T23:59:59Z,H,COMPLETED,2013-08-10,NA,2013-02-10,2013-08-10,181,NA,NA,NA,NA,1936-01-27
CDISCPILOT01,01-710-1021,1021,710,USA,2013-09-27,2013-11-12,2013-09-27,2013-10-29,2013-11-22,NA,NA,NA,NA,NA,NA,NA,NA,NA,NA,NA,NA,2013-09-19,-8,79,YEARS,>64,M,BLACK OR AFRICAN AMERICAN,Non-white,NOT HISPANIC OR LATINO,Y,Xanomeline High Dose,Xan_Hi,Xanomeline High Dose,Xan_Hi,Xanomeline High Dose,Xanomeline High Dose,2013-09-27,2013-09-27T00:00:00Z,H,2013-10-29,2013-10-29T23:59:59Z,H,DISCONTINUED,2013-11-12,NA,2013-09-27,2013-11-12,33,NA,NA,NA,NA,1934-09-19
CDISCPILOT01,01-710-1027,1027,710,USA,2014-02-28,2014-08-29,2014-02-28,2014-08-29,2014-08-29T11:05,NA,NA,NA,NA,NA,NA,NA,NA,NA,NA,NA,NA,2014-02-03,-25,83,YEARS,>64,M,WHITE,White,NOT HISPANIC OR LATINO,Y,Placebo,Pbo,Placebo,Pbo,Placebo,Placebo,2014-02-28,2014-02-28T00:00:00Z,H,2014-08-29,2014-08-29T23:59:59Z,H,COMPLETED,2014-08-29,NA,2014-02-28,2014-08-29,183,NA,NA,NA,NA,1931-02-03
CDISCPILOT01,01-710-1045,1045,710,USA,2013-06-03,2013-08-17,2013-06-03,2013-08-13,2013-09-08,NA,NA,NA,NA,NA,NA,NA,NA,NA,NA,NA,NA,2013-05-20,-14,83,YEARS,>64,F,WHITE,White,NOT HISPANIC OR LATINO,Y,Xanomeline Low Dose,Xan_Lo,Xanomeline Low Dose,Xan_Lo,Xanomeline Low Dose,Xanomeline Low Dose,2013-06-03,2013-06-03T00:00:00Z,H,2013-08-13,2013-08-13T23:59:59Z,H,DISCONTINUED,2013-08-17,NA,2013-06-03,2013-08-17,72,NA,NA,NA,NA,1930-05-20
CDISCPILOT01,01-710-1053,1053,710,USA,2012-12-26,2013-02-15,2012-12-26,2013-02-10,2013-02-26T13:25,NA,NA,NA,NA,NA,NA,NA,NA,NA,NA,NA,NA,2012-12-15,-11,84,YEARS,>64,F,WHITE,White,NOT HISPANIC OR LATINO,Y,Xanomeline Low Dose,Xan_Lo,Xanomeline Low Dose,Xan_Lo,Xanomeline Low Dose,Xanomeline Low Dose,2012-12-26,2012-12-26T00:00:00Z,H,2013-02-10,2013-02-10T23:59:59Z,H,DISCONTINUED,2013-02-15,NA,2012-12-26,2013-02-26,47,NA,NA,NA,NA,1928-12-15
CDISCPILOT01,01-710-1060,1060,710,USA,2013-01-01,2013-07-05,2013-01-01,2013-07-05,2013-07-05T14:40,NA,NA,NA,NA,NA,NA,NA,NA,NA,NA,NA,NA,2012-12-24,-8,82,YEARS,>64,M,WHITE,White,NOT HISPANIC OR LATINO,Y,Placebo,Pbo,Placebo,Pbo,Placebo,Placebo,2013-01-01,2013-01-01T00:00:00Z,H,2013-07-05,2013-07-05T23:59:59Z,H,COMPLETED,2013-07-05,NA,2013-01-01,2013-07-05,186,NA,NA,NA,NA,1930-12-24
CDISCPILOT01,01-710-1070,1070,710,USA,2012-09-08,2013-02-23,2012-09-08,2013-01-22,2013-07-04,NA,NA,NA,NA,NA,NA,NA,NA,NA,NA,NA,NA,2012-08-28,-11,85,YEARS,>64,F,WHITE,White,NOT HISPANIC OR LATINO,Y,Xanomeline High Dose,Xan_Hi,Xanomeline High Dose,Xan_Hi,Xanomeline High Dose,Xanomeline High Dose,2012-09-08,2012-09-08T00:00:00Z,H,2013-01-22,2013-01-22T23:59:59Z,H,DISCONTINUED,2013-02-23,NA,2012-09-08,2013-02-10,137,NA,NA,NA,NA,1927-08-28
CDISCPILOT01,01-710-1077,1077,710,USA,2013-11-17,2014-05-18,2013-11-17,2014-05-18,2014-05-18T09:50,NA,NA,NA,NA,NA,NA,NA,NA,NA,NA,NA,NA,2013-11-03,-14,76,YEARS,>64,F,WHITE,White,NOT HISPANIC OR LATINO,Y,Placebo,Pbo,Placebo,Pbo,Placebo,Placebo,2013-11-17,2013-11-17T00:00:00Z,H,2014-05-18,2014-05-18T23:59:59Z,H,COMPLETED,2014-05-18,NA,2013-11-17,2014-05-18,183,NA,NA,NA,NA,1937-11-03
CDISCPILOT01,01-710-1078,1078,710,USA,2013-09-17,2014-03-23,2013-09-17,2014-03-23,2014-03-23T16:00,NA,NA,NA,NA,NA,NA,NA,NA,NA,NA,NA,NA,2013-09-06,-11,81,YEARS,>64,F,WHITE,White,NOT HISPANIC OR LATINO,Y,Placebo,Pbo,Placebo,Pbo,Placebo,Placebo,2013-09-17,2013-09-17T00:00:00Z,H,2014-03-23,2014-03-23T23:59:59Z,H,COMPLETED,2014-03-23,NA,2013-09-17,2014-03-23,188,NA,NA,NA,NA,1932-09-06
CDISCPILOT01,01-710-1083,1083,710,USA,2013-07-22,2013-08-03,2013-07-22,2013-08-01,2013-08-03,NA,NA,2013-08-02,12,Y,1,<= 30,Y,NA,AE,Y,NA,2013-07-09,-13,89,YEARS,>64,F,WHITE,White,NOT HISPANIC OR LATINO,Y,Placebo,Pbo,Placebo,Pbo,Placebo,Placebo,2013-07-22,2013-07-22T00:00:00Z,H,2013-08-01,2013-08-01T23:59:59Z,H,DISCONTINUED,2013-08-02,NA,2013-07-22,2013-08-02,11,2013-08-02,NA,MYOCARDIAL INFARCTION,ADVERSE EVENT,1924-07-09
CDISCPILOT01,01-710-1129,1129,710,USA,NA,NA,NA,NA,2013-03-17,2013-03-05,NA,NA,NA,NA,NA,NA,NA,NA,NA,NA,NA,2013-03-05,NA,69,YEARS,>64,F,BLACK OR AFRICAN AMERICAN,Non-white,NOT HISPANIC OR LATINO,N,Screen Failure,Scrnfail,Screen Failure,Scrnfail,Screen Failure,Screen Failure,NA,NA,NA,NA,NA,NA,NA,NA,NA,NA,NA,NA,NA,NA,NA,NA,1944-03-05
CDISCPILOT01,01-710-1137,1137,710,USA,2013-10-11,2013-11-13,2013-10-11,2013-11-13,2013-11-25,NA,NA,NA,NA,NA,NA,NA,NA,NA,NA,NA,NA,2013-10-03,-8,79,YEARS,>64,F,BLACK OR AFRICAN AMERICAN,Non-white,NOT HISPANIC OR LATINO,Y,Xanomeline High Dose,Xan_Hi,Xanomeline High Dose,Xan_Hi,Xanomeline High Dose,Xanomeline High Dose,2013-10-11,2013-10-11T00:00:00Z,H,2013-11-13,2013-11-13T23:59:59Z,H,DISCONTINUED,2013-11-13,NA,2013-10-11,2013-11-13,34,NA,NA,NA,NA,1934-10-03
CDISCPILOT01,01-710-1142,1142,710,USA,2012-10-02,2012-10-23,2012-10-02,2012-10-20,2012-10-28,NA,NA,NA,NA,NA,NA,NA,NA,NA,NA,NA,NA,2012-09-12,-20,76,YEARS,>64,F,WHITE,White,NOT HISPANIC OR LATINO,Y,Xanomeline High Dose,Xan_Hi,Xanomeline High Dose,Xan_Hi,Xanomeline High Dose,Xanomeline High Dose,2012-10-02,2012-10-02T00:00:00Z,H,2012-10-20,2012-10-20T23:59:59Z,H,DISCONTINUED,2012-10-23,NA,2012-10-02,2012-10-23,19,NA,NA,NA,NA,1936-09-12
CDISCPILOT01,01-710-1149,1149,710,USA,NA,NA,NA,NA,2013-12-01,2013-11-16,NA,NA,NA,NA,NA,NA,NA,NA,NA,NA,NA,2013-11-16,NA,79,YEARS,>64,F,WHITE,White,NOT HISPANIC OR LATINO,N,Screen Failure,Scrnfail,Screen Failure,Scrnfail,Screen Failure,Screen Failure,NA,NA,NA,NA,NA,NA,NA,NA,NA,NA,NA,NA,NA,NA,NA,NA,1934-11-16
CDISCPILOT01,01-710-1154,1154,710,USA,2014-03-29,2014-05-09,2014-03-29,2014-04-27,2014-06-13,NA,NA,NA,NA,NA,NA,NA,NA,NA,NA,NA,NA,2014-03-08,-21,84,YEARS,>64,M,WHITE,White,HISPANIC OR LATINO,Y,Xanomeline Low Dose,Xan_Lo,Xanomeline Low Dose,Xan_Lo,Xanomeline Low Dose,Xanomeline Low Dose,2014-03-29,2014-03-29T00:00:00Z,H,2014-04-27,2014-04-27T23:59:59Z,H,DISCONTINUED,2014-05-09,NA,2014-03-29,2014-05-09,30,NA,NA,NA,NA,1930-03-08
CDISCPILOT01,01-710-1166,1166,710,USA,2012-11-30,2013-03-30,2012-11-30,2013-03-19,2013-05-22,NA,NA,NA,NA,NA,NA,NA,NA,NA,NA,NA,NA,2012-11-10,-20,81,YEARS,>64,F,WHITE,White,NOT HISPANIC OR LATINO,Y,Xanomeline Low Dose,Xan_Lo,Xanomeline Low Dose,Xan_Lo,Xanomeline Low Dose,Xanomeline Low Dose,2012-11-30,2012-11-30T00:00:00Z,H,2013-03-19,2013-03-19T23:59:59Z,H,DISCONTINUED,2013-03-30,NA,2012-11-30,2013-03-30,110,NA,NA,NA,NA,1931-11-10
CDISCPILOT01,01-710-1183,1183,710,USA,2013-11-16,2014-05-17,2013-11-16,2014-05-17,2014-05-17T11:55,NA,NA,NA,NA,NA,NA,NA,NA,NA,NA,NA,NA,2013-10-24,-23,80,YEARS,>64,F,WHITE,White,NOT HISPANIC OR LATINO,Y,Placebo,Pbo,Placebo,Pbo,Placebo,Placebo,2013-11-16,2013-11-16T00:00:00Z,H,2014-05-17,2014-05-17T23:59:59Z,H,COMPLETED,2014-05-17,NA,2013-11-16,2014-05-17,183,NA,NA,NA,NA,1933-10-24
CDISCPILOT01,01-710-1187,1187,710,USA,2012-11-10,2013-05-12,2012-11-10,2013-05-12,2013-05-12T11:05,NA,NA,NA,NA,NA,NA,NA,NA,NA,NA,NA,NA,2012-10-26,-15,78,YEARS,>64,F,WHITE,White,NOT HISPANIC OR LATINO,Y,Xanomeline High Dose,Xan_Hi,Xanomeline High Dose,Xan_Hi,Xanomeline High Dose,Xanomeline High Dose,2012-11-10,2012-11-10T00:00:00Z,H,2013-05-12,2013-05-12T23:59:59Z,H,COMPLETED,2013-05-12,NA,2012-11-10,2013-05-12,184,NA,NA,NA,NA,1934-10-26
CDISCPILOT01,01-710-1235,1235,710,USA,2012-09-26,2013-03-27,2012-09-26,2013-03-27,2013-03-27T09:35,NA,NA,NA,NA,NA,NA,NA,NA,NA,NA,NA,NA,2012-09-13,-13,56,YEARS,18-64,F,WHITE,White,HISPANIC OR LATINO,Y,Xanomeline Low Dose,Xan_Lo,Xanomeline Low Dose,Xan_Lo,Xanomeline Low Dose,Xanomeline Low Dose,2012-09-26,2012-09-26T00:00:00Z,H,2013-03-27,2013-03-27T23:59:59Z,H,COMPLETED,2013-03-27,NA,2012-09-26,2013-03-27,183,NA,NA,NA,NA,1956-09-13
CDISCPILOT01,01-710-1249,1249,710,USA,2013-12-28,2014-06-28,2013-12-28,2014-06-28,2014-06-28T11:05,NA,NA,NA,NA,NA,NA,NA,NA,NA,NA,NA,NA,2013-12-19,-9,79,YEARS,>64,M,WHITE,White,NOT HISPANIC OR LATINO,Y,Xanomeline High Dose,Xan_Hi,Xanomeline High Dose,Xan_Hi,Xanomeline High Dose,Xanomeline High Dose,2013-12-28,2013-12-28T00:00:00Z,H,2014-06-28,2014-06-28T23:59:59Z,H,COMPLETED,2014-06-28,NA,2013-12-28,2014-06-28,183,NA,NA,NA,NA,1934-12-19
CDISCPILOT01,01-710-1257,1257,710,USA,NA,NA,NA,NA,2013-12-11,2013-11-29,NA,NA,NA,NA,NA,NA,NA,NA,NA,NA,NA,2013-11-29,NA,85,YEARS,>64,F,WHITE,White,NOT HISPANIC OR LATINO,N,Screen Failure,Scrnfail,Screen Failure,Scrnfail,Screen Failure,Screen Failure,NA,NA,NA,NA,NA,NA,NA,NA,NA,NA,NA,NA,NA,NA,NA,NA,1928-11-29
CDISCPILOT01,01-710-1264,1264,710,USA,2013-06-13,2013-10-12,2013-06-13,2013-10-11,2013-11-05,NA,NA,NA,NA,NA,NA,NA,NA,NA,NA,NA,NA,2013-06-02,-11,78,YEARS,>64,M,WHITE,White,NOT HISPANIC OR LATINO,Y,Placebo,Pbo,Placebo,Pbo,Placebo,Placebo,2013-06-13,2013-06-13T00:00:00Z,H,2013-10-11,2013-10-11T23:59:59Z,H,DISCONTINUED,2013-10-12,NA,2013-06-13,2013-10-12,121,NA,NA,NA,NA,1935-06-02
CDISCPILOT01,01-710-1270,1270,710,USA,2014-02-12,2014-03-01,2014-02-12,2014-03-01,2014-03-26,NA,NA,NA,NA,NA,NA,NA,NA,NA,NA,NA,NA,2014-02-01,-11,83,YEARS,>64,F,WHITE,White,NOT HISPANIC OR LATINO,Y,Xanomeline Low Dose,Xan_Lo,Xanomeline Low Dose,Xan_Lo,Xanomeline Low Dose,Xanomeline Low Dose,2014-02-12,2014-02-12T00:00:00Z,H,2014-03-01,2014-03-01T23:59:59Z,H,DISCONTINUED,2014-03-01,NA,2014-02-12,2014-03-01,18,NA,NA,NA,NA,1931-02-01
CDISCPILOT01,01-710-1271,1271,710,USA,2012-09-27,2012-12-02,2012-09-27,2012-11-21,2012-12-09,NA,NA,NA,NA,NA,NA,NA,NA,NA,NA,NA,NA,2012-09-04,-23,86,YEARS,>64,F,WHITE,White,NOT HISPANIC OR LATINO,Y,Placebo,Pbo,Placebo,Pbo,Placebo,Placebo,2012-09-27,2012-09-27T00:00:00Z,H,2012-11-21,2012-11-21T23:59:59Z,H,DISCONTINUED,2012-12-02,NA,2012-09-27,2012-11-26,56,NA,NA,NA,NA,1926-09-04
CDISCPILOT01,01-710-1278,1278,710,USA,2012-12-24,2013-03-03,2012-12-24,2013-02-26,2013-03-10,NA,NA,NA,NA,NA,NA,NA,NA,NA,NA,NA,NA,2012-12-13,-11,81,YEARS,>64,M,WHITE,White,NOT HISPANIC OR LATINO,Y,Xanomeline High Dose,Xan_Hi,Xanomeline High Dose,Xan_Hi,Xanomeline High Dose,Xanomeline High Dose,2012-12-24,2012-12-24T00:00:00Z,H,2013-02-26,2013-02-26T23:59:59Z,H,DISCONTINUED,2013-03-03,NA,2012-12-24,2013-03-07,65,NA,NA,NA,NA,1931-12-13
CDISCPILOT01,01-710-1300,1300,710,USA,2012-12-15,2013-02-19,2012-12-15,2013-02-15,2013-03-19,NA,NA,NA,NA,NA,NA,NA,NA,NA,NA,NA,NA,2012-12-04,-11,78,YEARS,>64,F,WHITE,White,NOT HISPANIC OR LATINO,Y,Xanomeline Low Dose,Xan_Lo,Xanomeline Low Dose,Xan_Lo,Xanomeline Low Dose,Xanomeline Low Dose,2012-12-15,2012-12-15T00:00:00Z,H,2013-02-15,2013-02-15T23:59:59Z,H,DISCONTINUED,2013-02-19,NA,2012-12-15,2013-02-19,63,NA,NA,NA,NA,1934-12-04
CDISCPILOT01,01-710-1314,1314,710,USA,2013-04-24,2013-05-25,2013-04-24,2013-05-23,2013-05-25,NA,NA,NA,NA,NA,NA,NA,NA,NA,NA,NA,NA,2013-04-21,-3,78,YEARS,>64,F,WHITE,White,NOT HISPANIC OR LATINO,Y,Placebo,Pbo,Placebo,Pbo,Placebo,Placebo,2013-04-24,2013-04-24T00:00:00Z,H,2013-05-23,2013-05-23T23:59:59Z,H,DISCONTINUED,2013-05-25,NA,2013-04-24,2013-05-24,30,NA,NA,NA,NA,1935-04-21
CDISCPILOT01,01-710-1315,1315,710,USA,2013-02-27,2013-07-16,2013-02-27,2013-07-06,2013-09-02,NA,NA,NA,NA,NA,NA,NA,NA,NA,NA,NA,NA,2013-02-12,-15,83,YEARS,>64,F,WHITE,White,NOT HISPANIC OR LATINO,Y,Placebo,Pbo,Placebo,Pbo,Placebo,Placebo,2013-02-27,2013-02-27T00:00:00Z,H,2013-07-06,2013-07-06T23:59:59Z,H,DISCONTINUED,2013-07-16,NA,2013-02-27,2013-07-16,130,NA,NA,NA,NA,1930-02-12
CDISCPILOT01,01-710-1337,1337,710,USA,NA,NA,NA,NA,2014-01-26,2013-12-30,NA,NA,NA,NA,NA,NA,NA,NA,NA,NA,NA,2013-12-30,NA,73,YEARS,>64,M,WHITE,White,NOT HISPANIC OR LATINO,N,Screen Failure,Scrnfail,Screen Failure,Scrnfail,Screen Failure,Screen Failure,NA,NA,NA,NA,NA,NA,NA,NA,NA,NA,NA,NA,NA,NA,NA,NA,1940-12-30
CDISCPILOT01,01-710-1354,1354,710,USA,2012-11-11,2013-05-01,2012-11-11,2013-05-01,2013-05-01T14:05,NA,NA,NA,NA,NA,NA,NA,NA,NA,NA,NA,NA,2012-10-29,-13,73,YEARS,>64,M,WHITE,White,NOT HISPANIC OR LATINO,Y,Xanomeline High Dose,Xan_Hi,Xanomeline High Dose,Xan_Hi,Xanomeline High Dose,Xanomeline High Dose,2012-11-11,2012-11-11T00:00:00Z,H,2013-05-01,2013-05-01T23:59:59Z,H,COMPLETED,2013-05-01,NA,2012-11-11,2013-05-01,172,NA,NA,NA,NA,1939-10-29
CDISCPILOT01,01-710-1358,1358,710,USA,2012-09-17,2013-03-12,2012-09-17,2013-02-09,2013-03-12,NA,NA,NA,NA,NA,NA,NA,NA,NA,NA,NA,NA,2012-09-02,-15,82,YEARS,>64,M,WHITE,White,NOT HISPANIC OR LATINO,Y,Xanomeline Low Dose,Xan_Lo,Xanomeline Low Dose,Xan_Lo,Xanomeline Low Dose,Xanomeline Low Dose,2012-09-17,2012-09-17T00:00:00Z,H,2013-02-09,2013-02-09T23:59:59Z,H,DISCONTINUED,2013-03-12,NA,2012-09-17,2013-02-09,146,NA,NA,NA,NA,1930-09-02
CDISCPILOT01,01-710-1368,1368,710,USA,2013-10-23,2014-04-24,2013-10-23,2014-04-24,2014-04-24T10:10,NA,NA,NA,NA,NA,NA,NA,NA,NA,NA,NA,NA,2013-10-21,-2,88,YEARS,>64,F,WHITE,White,NOT HISPANIC OR LATINO,Y,Placebo,Pbo,Placebo,Pbo,Placebo,Placebo,2013-10-23,2013-10-23T00:00:00Z,H,2014-04-24,2014-04-24T23:59:59Z,H,COMPLETED,2014-04-24,NA,2013-10-23,2014-04-24,184,NA,NA,NA,NA,1925-10-21
CDISCPILOT01,01-710-1376,1376,710,USA,NA,NA,NA,NA,2014-05-02,2014-04-21,NA,NA,NA,NA,NA,NA,NA,NA,NA,NA,NA,2014-04-21,NA,89,YEARS,>64,F,WHITE,White,NOT HISPANIC OR LATINO,N,Screen Failure,Scrnfail,Screen Failure,Scrnfail,Screen Failure,Screen Failure,NA,NA,NA,NA,NA,NA,NA,NA,NA,NA,NA,NA,NA,NA,NA,NA,1925-04-21
CDISCPILOT01,01-710-1380,1380,710,USA,NA,NA,NA,NA,2013-06-12,2013-06-02,NA,NA,NA,NA,NA,NA,NA,NA,NA,NA,NA,2013-06-02,NA,80,YEARS,>64,F,WHITE,White,NOT HISPANIC OR LATINO,N,Screen Failure,Scrnfail,Screen Failure,Scrnfail,Screen Failure,Screen Failure,NA,NA,NA,NA,NA,NA,NA,NA,NA,NA,NA,NA,NA,NA,NA,NA,1933-06-02
CDISCPILOT01,01-710-1385,1385,710,USA,2012-10-29,2013-02-18,2012-10-29,2013-02-18,2013-02-24,NA,NA,NA,NA,NA,NA,NA,NA,NA,NA,NA,NA,2012-10-21,-8,77,YEARS,>64,M,WHITE,White,NOT HISPANIC OR LATINO,Y,Xanomeline Low Dose,Xan_Lo,Xanomeline Low Dose,Xan_Lo,Xanomeline Low Dose,Xanomeline Low Dose,2012-10-29,2012-10-29T00:00:00Z,H,2013-02-18,2013-02-18T23:59:59Z,H,DISCONTINUED,2013-02-18,NA,2012-10-29,2013-02-18,113,NA,NA,NA,NA,1935-10-21
CDISCPILOT01,01-710-1408,1408,710,USA,2013-01-05,2013-07-12,2013-01-05,2013-07-12,2013-07-12T14:35,NA,NA,NA,NA,NA,NA,NA,NA,NA,NA,NA,NA,2012-12-26,-10,80,YEARS,>64,M,WHITE,White,NOT HISPANIC OR LATINO,Y,Xanomeline High Dose,Xan_Hi,Xanomeline High Dose,Xan_Hi,Xanomeline High Dose,Xanomeline High Dose,2013-01-05,2013-01-05T00:00:00Z,H,2013-07-12,2013-07-12T23:59:59Z,H,COMPLETED,2013-07-12,NA,2013-01-05,2013-07-12,189,NA,NA,NA,NA,1932-12-26
CDISCPILOT01,01-710-1443,1443,710,USA,NA,NA,NA,NA,2013-12-14,2013-12-13,NA,NA,NA,NA,NA,NA,NA,NA,NA,NA,NA,2013-12-13,NA,88,YEARS,>64,F,WHITE,White,NOT HISPANIC OR LATINO,N,Screen Failure,Scrnfail,Screen Failure,Scrnfail,Screen Failure,Screen Failure,NA,NA,NA,NA,NA,NA,NA,NA,NA,NA,NA,NA,NA,NA,NA,NA,1925-12-13
CDISCPILOT01,01-711-1012,1012,711,USA,2013-04-03,2013-05-02,2013-04-03,2013-04-29,2013-09-18,NA,2013-09-18,NA,NA,NA,NA,NA,NA,NA,NA,NA,NA,2013-03-20,-14,67,YEARS,>64,F,WHITE,White,NOT HISPANIC OR LATINO,Y,Xanomeline High Dose,Xan_Hi,Xanomeline High Dose,Xan_Hi,Xanomeline High Dose,Xanomeline High Dose,2013-04-03,2013-04-03T00:00:00Z,H,2013-04-29,2013-04-29T23:59:59Z,H,DISCONTINUED,2013-05-02,NA,2013-04-03,2013-05-02,27,NA,NA,NA,NA,1946-03-20
CDISCPILOT01,01-711-1022,1022,711,USA,NA,NA,NA,NA,2014-03-17,2014-03-17,NA,NA,NA,NA,NA,NA,NA,NA,NA,NA,NA,2014-03-17,NA,86,YEARS,>64,F,WHITE,White,NOT HISPANIC OR LATINO,N,Screen Failure,Scrnfail,Screen Failure,Scrnfail,Screen Failure,Screen Failure,NA,NA,NA,NA,NA,NA,NA,NA,NA,NA,NA,NA,NA,NA,NA,NA,1928-03-17
CDISCPILOT01,01-711-1036,1036,711,USA,2012-07-29,2013-02-10,2012-07-29,2013-02-10,2013-02-10T10:25,NA,NA,NA,NA,NA,NA,NA,NA,NA,NA,NA,NA,2012-07-20,-9,70,YEARS,>64,M,BLACK OR AFRICAN AMERICAN,Non-white,NOT HISPANIC OR LATINO,Y,Placebo,Pbo,Placebo,Pbo,Placebo,Placebo,2012-07-29,2012-07-29T00:00:00Z,H,2013-02-10,2013-02-10T23:59:59Z,H,COMPLETED,2013-02-10,NA,2012-07-29,2013-02-10,197,NA,NA,NA,NA,1942-07-20
CDISCPILOT01,01-711-1143,1143,711,USA,2013-04-03,2013-06-01,2013-04-03,2013-05-30,2013-09-22,NA,2013-09-22,NA,NA,NA,NA,NA,NA,NA,NA,NA,NA,2013-03-30,-4,76,YEARS,>64,F,WHITE,White,NOT HISPANIC OR LATINO,Y,Xanomeline Low Dose,Xan_Lo,Xanomeline Low Dose,Xan_Lo,Xanomeline Low Dose,Xanomeline Low Dose,2013-04-03,2013-04-03T00:00:00Z,H,2013-05-30,2013-05-30T23:59:59Z,H,DISCONTINUED,2013-06-01,NA,2013-04-03,2013-06-01,58,NA,NA,NA,NA,1937-03-30
CDISCPILOT01,01-711-1163,1163,711,USA,NA,NA,NA,NA,2012-11-08,2012-11-08,NA,NA,NA,NA,NA,NA,NA,NA,NA,NA,NA,2012-11-08,NA,74,YEARS,>64,F,BLACK OR AFRICAN AMERICAN,Non-white,NOT HISPANIC OR LATINO,N,Screen Failure,Scrnfail,Screen Failure,Scrnfail,Screen Failure,Screen Failure,NA,NA,NA,NA,NA,NA,NA,NA,NA,NA,NA,NA,NA,NA,NA,NA,1938-11-08
CDISCPILOT01,01-711-1173,1173,711,USA,NA,NA,NA,NA,2012-10-04,2012-10-04,NA,NA,NA,NA,NA,NA,NA,NA,NA,NA,NA,2012-10-04,NA,62,YEARS,18-64,M,WHITE,White,NOT HISPANIC OR LATINO,N,Screen Failure,Scrnfail,Screen Failure,Scrnfail,Screen Failure,Screen Failure,NA,NA,NA,NA,NA,NA,NA,NA,NA,NA,NA,NA,NA,NA,NA,NA,1950-10-04
CDISCPILOT01,01-711-1226,1226,711,USA,NA,NA,NA,NA,2013-10-24,2013-10-24,NA,NA,NA,NA,NA,NA,NA,NA,NA,NA,NA,2013-10-24,NA,74,YEARS,>64,F,WHITE,White,NOT HISPANIC OR LATINO,N,Screen Failure,Scrnfail,Screen Failure,Scrnfail,Screen Failure,Screen Failure,NA,NA,NA,NA,NA,NA,NA,NA,NA,NA,NA,NA,NA,NA,NA,NA,1939-10-24
CDISCPILOT01,01-711-1251,1251,711,USA,NA,NA,NA,NA,2014-02-28,2014-02-28,NA,NA,NA,NA,NA,NA,NA,NA,NA,NA,NA,2014-02-28,NA,82,YEARS,>64,M,WHITE,White,NOT HISPANIC OR LATINO,N,Screen Failure,Scrnfail,Screen Failure,Scrnfail,Screen Failure,Screen Failure,NA,NA,NA,NA,NA,NA,NA,NA,NA,NA,NA,NA,NA,NA,NA,NA,1932-02-28
CDISCPILOT01,01-711-1283,1283,711,USA,NA,NA,NA,NA,2014-03-27,2014-03-27,NA,NA,NA,NA,NA,NA,NA,NA,NA,NA,NA,2014-03-27,NA,75,YEARS,>64,F,BLACK OR AFRICAN AMERICAN,Non-white,NOT HISPANIC OR LATINO,N,Screen Failure,Scrnfail,Screen Failure,Scrnfail,Screen Failure,Screen Failure,NA,NA,NA,NA,NA,NA,NA,NA,NA,NA,NA,NA,NA,NA,NA,NA,1939-03-27
CDISCPILOT01,01-711-1284,1284,711,USA,NA,NA,NA,NA,2013-08-05,2013-08-05,NA,NA,NA,NA,NA,NA,NA,NA,NA,NA,NA,2013-08-05,NA,77,YEARS,>64,F,WHITE,White,NOT HISPANIC OR LATINO,N,Screen Failure,Scrnfail,Screen Failure,Scrnfail,Screen Failure,Screen Failure,NA,NA,NA,NA,NA,NA,NA,NA,NA,NA,NA,NA,NA,NA,NA,NA,1936-08-05
CDISCPILOT01,01-711-1290,1290,711,USA,NA,NA,NA,NA,2013-12-20,2013-12-20,NA,NA,NA,NA,NA,NA,NA,NA,NA,NA,NA,2013-12-20,NA,61,YEARS,18-64,F,WHITE,White,NOT HISPANIC OR LATINO,N,Screen Failure,Scrnfail,Screen Failure,Scrnfail,Screen Failure,Screen Failure,NA,NA,NA,NA,NA,NA,NA,NA,NA,NA,NA,NA,NA,NA,NA,NA,1952-12-20
CDISCPILOT01,01-711-1433,1433,711,USA,2013-01-27,2013-02-06,2013-01-27,2013-02-05,2013-02-06T10:52,NA,NA,NA,NA,NA,NA,NA,NA,NA,NA,NA,NA,2013-01-23,-4,84,YEARS,>64,F,WHITE,White,NOT HISPANIC OR LATINO,Y,Xanomeline High Dose,Xan_Hi,Xanomeline Low Dose,Xan_Lo,Xanomeline High Dose,Xanomeline Low Dose,2013-01-27,2013-01-27T00:00:00Z,H,2013-02-05,2013-02-05T23:59:59Z,H,DISCONTINUED,2013-02-06,NA,2013-01-27,2013-02-06,10,NA,NA,NA,NA,1929-01-23
CDISCPILOT01,01-713-1043,1043,713,USA,2013-09-15,2014-03-24,2013-09-15,2014-03-24,2014-03-24T14:30,NA,NA,NA,NA,NA,NA,NA,NA,NA,NA,NA,NA,2013-08-17,-29,78,YEARS,>64,F,WHITE,White,NOT HISPANIC OR LATINO,Y,Xanomeline Low Dose,Xan_Lo,Xanomeline Low Dose,Xan_Lo,Xanomeline Low Dose,Xanomeline Low Dose,2013-09-15,2013-09-15T00:00:00Z,H,2014-03-24,2014-03-24T23:59:59Z,H,COMPLETED,2014-03-24,NA,2013-09-15,2014-03-24,191,NA,NA,NA,NA,1935-08-17
CDISCPILOT01,01-713-1073,1073,713,USA,2014-03-30,2014-10-05,2014-03-30,2014-10-05,2014-10-05T10:30,NA,NA,NA,NA,NA,NA,NA,NA,NA,NA,NA,NA,2014-03-15,-15,74,YEARS,>64,F,BLACK OR AFRICAN AMERICAN,Non-white,NOT HISPANIC OR LATINO,Y,Xanomeline Low Dose,Xan_Lo,Xanomeline Low Dose,Xan_Lo,Xanomeline Low Dose,Xanomeline Low Dose,2014-03-30,2014-03-30T00:00:00Z,H,2014-10-05,2014-10-05T23:59:59Z,H,COMPLETED,2014-10-05,NA,2014-03-30,2014-10-05,190,NA,NA,NA,NA,1940-03-15
CDISCPILOT01,01-713-1106,1106,713,USA,2012-10-31,2013-05-06,2012-10-31,2013-05-06,2013-05-06T11:25,NA,NA,NA,NA,NA,NA,NA,NA,NA,NA,NA,NA,2012-10-03,-28,74,YEARS,>64,M,WHITE,White,NOT HISPANIC OR LATINO,Y,Xanomeline High Dose,Xan_Hi,Xanomeline High Dose,Xan_Hi,Xanomeline High Dose,Xanomeline High Dose,2012-10-31,2012-10-31T00:00:00Z,H,2013-05-06,2013-05-06T23:59:59Z,H,COMPLETED,2013-05-06,NA,2012-10-31,2013-05-06,188,NA,NA,NA,NA,1938-10-03
CDISCPILOT01,01-713-1141,1141,713,USA,2013-05-31,2013-08-06,2013-05-31,2013-07-01,2013-08-06T12:00,NA,NA,NA,NA,NA,NA,NA,NA,NA,NA,NA,NA,2013-05-23,-8,79,YEARS,>64,M,WHITE,White,NOT HISPANIC OR LATINO,Y,Xanomeline High Dose,Xan_Hi,Xanomeline High Dose,Xan_Hi,Xanomeline High Dose,Xanomeline High Dose,2013-05-31,2013-05-31T00:00:00Z,H,2013-07-01,2013-07-01T23:59:59Z,H,DISCONTINUED,2013-08-06,NA,2013-05-31,2013-08-06,32,NA,NA,NA,NA,1934-05-23
CDISCPILOT01,01-713-1179,1179,713,USA,2013-08-09,2014-02-05,2013-08-09,2014-02-05,2014-02-05T15:15,NA,NA,NA,NA,NA,NA,NA,NA,NA,NA,NA,NA,2013-07-11,-29,64,YEARS,18-64,F,WHITE,White,NOT HISPANIC OR LATINO,Y,Placebo,Pbo,Placebo,Pbo,Placebo,Placebo,2013-08-09,2013-08-09T00:00:00Z,H,2014-02-05,2014-02-05T23:59:59Z,H,COMPLETED,2014-02-05,NA,2013-08-09,2014-02-05,181,NA,NA,NA,NA,1949-07-11
CDISCPILOT01,01-713-1209,1209,713,USA,2013-05-27,2013-11-22,2013-05-27,2013-11-22,2013-11-22T10:05,NA,NA,NA,NA,NA,NA,NA,NA,NA,NA,NA,NA,2013-05-16,-11,77,YEARS,>64,F,WHITE,White,NOT HISPANIC OR LATINO,Y,Xanomeline High Dose,Xan_Hi,Xanomeline High Dose,Xan_Hi,Xanomeline High Dose,Xanomeline High Dose,2013-05-27,2013-05-27T00:00:00Z,H,2013-11-22,2013-11-22T23:59:59Z,H,COMPLETED,2013-11-22,NA,2013-05-27,2013-11-22,180,NA,NA,NA,NA,1936-05-16
CDISCPILOT01,01-713-1256,1256,713,USA,2012-09-19,2013-03-25,2012-09-19,2013-03-25,2013-03-25T10:30,NA,NA,NA,NA,NA,NA,NA,NA,NA,NA,NA,NA,2012-09-10,-9,71,YEARS,>64,M,WHITE,White,NOT HISPANIC OR LATINO,Y,Placebo,Pbo,Placebo,Pbo,Placebo,Placebo,2012-09-19,2012-09-19T00:00:00Z,H,2013-03-25,2013-03-25T23:59:59Z,H,COMPLETED,2013-03-25,NA,2012-09-19,2013-03-25,188,NA,NA,NA,NA,1941-09-10
CDISCPILOT01,01-713-1269,1269,713,USA,2014-01-27,2014-07-28,2014-01-27,2014-07-28,2014-07-28T14:00,NA,NA,NA,NA,NA,NA,NA,NA,NA,NA,NA,NA,2014-01-14,-13,73,YEARS,>64,M,WHITE,White,NOT HISPANIC OR LATINO,Y,Placebo,Pbo,Placebo,Pbo,Placebo,Placebo,2014-01-27,2014-01-27T00:00:00Z,H,2014-07-28,2014-07-28T23:59:59Z,H,COMPLETED,2014-07-28,NA,2014-01-27,2014-07-28,183,NA,NA,NA,NA,1941-01-14
CDISCPILOT01,01-713-1448,1448,713,USA,2014-01-19,2014-05-17,2014-01-19,2014-05-16,2014-07-27,NA,2014-07-27,NA,NA,NA,NA,NA,NA,NA,NA,NA,NA,2014-01-05,-14,71,YEARS,>64,F,WHITE,White,NOT HISPANIC OR LATINO,Y,Xanomeline Low Dose,Xan_Lo,Xanomeline Low Dose,Xan_Lo,Xanomeline Low Dose,Xanomeline Low Dose,2014-01-19,2014-01-19T00:00:00Z,H,2014-05-16,2014-05-16T23:59:59Z,H,DISCONTINUED,2014-05-17,NA,2014-01-19,2014-05-23,118,NA,NA,NA,NA,1943-01-05
CDISCPILOT01,01-714-1035,1035,714,USA,2014-04-17,2014-10-16,2014-04-17,2014-10-16,2014-10-16T12:00,NA,NA,NA,NA,NA,NA,NA,NA,NA,NA,NA,NA,2014-04-03,-14,88,YEARS,>64,F,WHITE,White,NOT HISPANIC OR LATINO,Y,Placebo,Pbo,Placebo,Pbo,Placebo,Placebo,2014-04-17,2014-04-17T00:00:00Z,H,2014-10-16,2014-10-16T23:59:59Z,H,COMPLETED,2014-10-16,NA,2014-04-17,2014-10-16,183,NA,NA,NA,NA,1926-04-03
CDISCPILOT01,01-714-1068,1068,714,USA,2013-08-08,2013-10-16,2013-08-08,2013-10-08,2013-10-23,NA,NA,NA,NA,NA,NA,NA,NA,NA,NA,NA,NA,2013-07-31,-8,79,YEARS,>64,F,WHITE,White,NOT HISPANIC OR LATINO,Y,Xanomeline Low Dose,Xan_Lo,Xanomeline Low Dose,Xan_Lo,Xanomeline Low Dose,Xanomeline Low Dose,2013-08-08,2013-08-08T00:00:00Z,H,2013-10-08,2013-10-08T23:59:59Z,H,DISCONTINUED,2013-10-16,NA,2013-08-08,2013-10-16,62,NA,NA,NA,NA,1934-07-31
CDISCPILOT01,01-714-1195,1195,714,USA,2013-04-26,2013-10-23,2013-04-26,2013-10-23,2013-10-23T10:55,NA,NA,NA,NA,NA,NA,NA,NA,NA,NA,NA,NA,2013-04-16,-10,75,YEARS,>64,M,WHITE,White,NOT HISPANIC OR LATINO,Y,Xanomeline Low Dose,Xan_Lo,Xanomeline Low Dose,Xan_Lo,Xanomeline Low Dose,Xanomeline Low Dose,2013-04-26,2013-04-26T00:00:00Z,H,2013-10-23,2013-10-23T23:59:59Z,H,COMPLETED,2013-10-23,NA,2013-04-26,2013-10-23,181,NA,NA,NA,NA,1938-04-16
CDISCPILOT01,01-714-1288,1288,714,USA,2013-12-04,2014-06-17,2013-12-04,2014-06-17,2014-06-17T13:00,NA,NA,NA,NA,NA,NA,NA,NA,NA,NA,NA,NA,2013-11-24,-10,77,YEARS,>64,M,BLACK OR AFRICAN AMERICAN,Non-white,NOT HISPANIC OR LATINO,Y,Xanomeline High Dose,Xan_Hi,Xanomeline High Dose,Xan_Hi,Xanomeline High Dose,Xanomeline High Dose,2013-12-04,2013-12-04T00:00:00Z,H,2014-06-17,2014-06-17T23:59:59Z,H,COMPLETED,2014-06-17,NA,2013-12-04,2014-06-17,196,NA,NA,NA,NA,1936-11-24
CDISCPILOT01,01-714-1375,1375,714,USA,2013-02-26,2013-09-07,2013-02-26,2013-09-07,2013-09-07T13:58,NA,NA,NA,NA,NA,NA,NA,NA,NA,NA,NA,NA,2013-02-23,-3,78,YEARS,>64,F,WHITE,White,NOT HISPANIC OR LATINO,Y,Placebo,Pbo,Placebo,Pbo,Placebo,Placebo,2013-02-26,2013-02-26T00:00:00Z,H,2013-09-07,2013-09-07T23:59:59Z,H,COMPLETED,2013-09-07,NA,2013-02-26,2013-09-07,194,NA,NA,NA,NA,1935-02-23
CDISCPILOT01,01-714-1425,1425,714,USA,2013-08-15,2013-08-22,2013-08-15,2013-08-19,2013-08-22T14:55,NA,NA,NA,NA,NA,NA,NA,NA,NA,NA,NA,NA,2013-08-11,-4,81,YEARS,>64,M,WHITE,White,NOT HISPANIC OR LATINO,Y,Xanomeline High Dose,Xan_Hi,Xanomeline Low Dose,Xan_Lo,Xanomeline High Dose,Xanomeline Low Dose,2013-08-15,2013-08-15T00:00:00Z,H,2013-08-19,2013-08-19T23:59:59Z,H,DISCONTINUED,2013-08-22,NA,2013-08-15,2013-08-22,5,NA,NA,NA,NA,1932-08-11
CDISCPILOT01,01-715-1085,1085,715,USA,2013-02-16,2013-08-18,2013-02-16,2013-08-18,2013-08-18T10:22,NA,NA,NA,NA,NA,NA,NA,NA,NA,NA,NA,NA,2013-02-03,-13,77,YEARS,>64,F,WHITE,White,NOT HISPANIC OR LATINO,Y,Xanomeline Low Dose,Xan_Lo,Xanomeline Low Dose,Xan_Lo,Xanomeline Low Dose,Xanomeline Low Dose,2013-02-16,2013-02-16T00:00:00Z,H,2013-08-18,2013-08-18T23:59:59Z,H,COMPLETED,2013-08-18,NA,2013-02-16,2013-08-18,184,NA,NA,NA,NA,1936-02-03
CDISCPILOT01,01-715-1107,1107,715,USA,2013-02-26,2013-05-13,2013-02-26,2013-05-07,2013-08-14T09:52,NA,2013-08-14,NA,NA,NA,NA,NA,NA,NA,NA,NA,NA,2013-02-12,-14,65,YEARS,>64,M,WHITE,White,NOT HISPANIC OR LATINO,Y,Xanomeline Low Dose,Xan_Lo,Xanomeline Low Dose,Xan_Lo,Xanomeline Low Dose,Xanomeline Low Dose,2013-02-26,2013-02-26T00:00:00Z,H,2013-05-07,2013-05-07T23:59:59Z,H,DISCONTINUED,2013-05-13,NA,2013-02-26,2013-08-14,71,NA,NA,NA,NA,1948-02-12
CDISCPILOT01,01-715-1134,1134,715,USA,NA,NA,NA,NA,2014-05-21,2014-04-17,NA,NA,NA,NA,NA,NA,NA,NA,NA,NA,NA,2014-04-17,NA,50,YEARS,18-64,F,WHITE,White,NOT HISPANIC OR LATINO,N,Screen Failure,Scrnfail,Screen Failure,Scrnfail,Screen Failure,Screen Failure,NA,NA,NA,NA,NA,NA,NA,NA,NA,NA,NA,NA,NA,NA,NA,NA,1964-04-17
CDISCPILOT01,01-715-1155,1155,715,USA,2013-12-13,2014-04-26,2013-12-13,2014-01-25,2014-04-26,NA,NA,NA,NA,NA,NA,NA,NA,NA,NA,NA,NA,2013-11-29,-14,59,YEARS,18-64,F,WHITE,White,NOT HISPANIC OR LATINO,Y,Placebo,Pbo,Placebo,Pbo,Placebo,Placebo,2013-12-13,2013-12-13T00:00:00Z,H,2014-01-25,2014-01-25T23:59:59Z,H,DISCONTINUED,2014-04-26,NA,2013-12-13,2014-01-25,44,NA,NA,NA,NA,1954-11-29
CDISCPILOT01,01-715-1207,1207,715,USA,2012-11-18,2013-06-01,2012-11-18,2013-05-27,2013-06-01T09:30,NA,NA,NA,NA,NA,NA,NA,NA,NA,NA,NA,NA,2012-11-12,-6,78,YEARS,>64,F,WHITE,White,NOT HISPANIC OR LATINO,Y,Placebo,Pbo,Placebo,Pbo,Placebo,Placebo,2012-11-18,2012-11-18T00:00:00Z,H,2013-05-27,2013-05-27T23:59:59Z,H,COMPLETED,2013-06-01,NA,2012-11-18,2013-06-01,191,NA,NA,NA,NA,1934-11-12
CDISCPILOT01,01-715-1225,1225,715,USA,NA,NA,NA,NA,2013-05-07,2013-01-22,NA,NA,NA,NA,NA,NA,NA,NA,NA,NA,NA,2013-01-22,NA,77,YEARS,>64,F,WHITE,White,NOT HISPANIC OR LATINO,N,Screen Failure,Scrnfail,Screen Failure,Scrnfail,Screen Failure,Screen Failure,NA,NA,NA,NA,NA,NA,NA,NA,NA,NA,NA,NA,NA,NA,NA,NA,1936-01-22
CDISCPILOT01,01-715-1319,1319,715,USA,2013-02-17,2013-03-18,2013-02-17,2013-03-05,2013-03-18T10:28,NA,NA,NA,NA,NA,NA,NA,NA,NA,NA,NA,NA,2013-02-03,-14,65,YEARS,>64,M,WHITE,White,NOT HISPANIC OR LATINO,Y,Xanomeline High Dose,Xan_Hi,Xanomeline High Dose,Xan_Hi,Xanomeline High Dose,Xanomeline High Dose,2013-02-17,2013-02-17T00:00:00Z,H,2013-03-05,2013-03-05T23:59:59Z,H,DISCONTINUED,2013-03-18,NA,2013-02-17,2013-03-18,17,NA,NA,NA,NA,1948-02-03
CDISCPILOT01,01-715-1321,1321,715,USA,2014-02-11,2014-04-22,2014-02-11,2014-04-21,2014-04-22T11:12,NA,NA,NA,NA,NA,NA,NA,NA,NA,NA,NA,NA,2014-02-06,-5,75,YEARS,>64,F,WHITE,White,NOT HISPANIC OR LATINO,Y,Xanomeline High Dose,Xan_Hi,Xanomeline High Dose,Xan_Hi,Xanomeline High Dose,Xanomeline High Dose,2014-02-11,2014-02-11T00:00:00Z,H,2014-04-21,2014-04-21T23:59:59Z,H,DISCONTINUED,2014-04-22,NA,2014-02-11,2014-04-22,70,NA,NA,NA,NA,1939-02-06
CDISCPILOT01,01-715-1333,1333,715,USA,NA,NA,NA,NA,2013-11-03,2013-06-03,NA,NA,NA,NA,NA,NA,NA,NA,NA,NA,NA,2013-06-03,NA,75,YEARS,>64,F,WHITE,White,NOT HISPANIC OR LATINO,N,Screen Failure,Scrnfail,Screen Failure,Scrnfail,Screen Failure,Screen Failure,NA,NA,NA,NA,NA,NA,NA,NA,NA,NA,NA,NA,NA,NA,NA,NA,1938-06-03
CDISCPILOT01,01-715-1397,1397,715,USA,2013-04-03,2013-10-03,2013-04-03,2013-10-02,2013-10-03T10:50,NA,NA,NA,NA,NA,NA,NA,NA,NA,NA,NA,NA,2013-03-20,-14,76,YEARS,>64,F,WHITE,White,NOT HISPANIC OR LATINO,Y,Placebo,Pbo,Placebo,Pbo,Placebo,Placebo,2013-04-03,2013-04-03T00:00:00Z,H,2013-10-02,2013-10-02T23:59:59Z,H,COMPLETED,2013-10-03,NA,2013-04-03,2013-10-03,183,NA,NA,NA,NA,1937-03-20
CDISCPILOT01,01-715-1405,1405,715,USA,2013-07-06,2013-07-13,2013-07-06,2013-07-07,2014-01-11,NA,2014-01-11,NA,NA,NA,NA,NA,NA,NA,NA,NA,NA,2013-06-27,-9,69,YEARS,>64,M,WHITE,White,NOT HISPANIC OR LATINO,Y,Xanomeline Low Dose,Xan_Lo,Xanomeline Low Dose,Xan_Lo,Xanomeline Low Dose,Xanomeline Low Dose,2013-07-06,2013-07-06T00:00:00Z,H,2013-07-07,2013-07-07T23:59:59Z,H,DISCONTINUED,2013-07-13,NA,2013-07-06,2013-07-13,2,NA,NA,NA,NA,1944-06-27
CDISCPILOT01,01-715-1407,1407,715,USA,NA,NA,NA,NA,2013-02-07,2012-10-24,NA,NA,NA,NA,NA,NA,NA,NA,NA,NA,NA,2012-10-24,NA,73,YEARS,>64,F,WHITE,White,NOT HISPANIC OR LATINO,N,Screen Failure,Scrnfail,Screen Failure,Scrnfail,Screen Failure,Screen Failure,NA,NA,NA,NA,NA,NA,NA,NA,NA,NA,NA,NA,NA,NA,NA,NA,1939-10-24
CDISCPILOT01,01-716-1003,1003,716,USA,NA,NA,NA,NA,2014-03-29,2014-03-29,NA,NA,NA,NA,NA,NA,NA,NA,NA,NA,NA,2014-03-29,NA,79,YEARS,>64,M,WHITE,White,HISPANIC OR LATINO,N,Screen Failure,Scrnfail,Screen Failure,Scrnfail,Screen Failure,Screen Failure,NA,NA,NA,NA,NA,NA,NA,NA,NA,NA,NA,NA,NA,NA,NA,NA,1935-03-29
CDISCPILOT01,01-716-1024,1024,716,USA,2012-07-09,2013-01-20,2012-07-09,2013-01-20,2013-01-20T11:10,NA,NA,NA,NA,NA,NA,NA,NA,NA,NA,NA,NA,2012-07-06,-3,87,YEARS,>64,F,WHITE,White,NOT HISPANIC OR LATINO,Y,Placebo,Pbo,Placebo,Pbo,Placebo,Placebo,2012-07-09,2012-07-09T00:00:00Z,H,2013-01-20,2013-01-20T23:59:59Z,H,COMPLETED,2013-01-20,NA,2012-07-09,2013-01-20,196,NA,NA,NA,NA,1925-07-06
CDISCPILOT01,01-716-1026,1026,716,USA,2014-04-02,2014-10-16,2014-04-02,2014-10-16,2014-10-16T13:35,NA,NA,NA,NA,NA,NA,NA,NA,NA,NA,NA,NA,2014-03-23,-10,73,YEARS,>64,F,WHITE,White,NOT HISPANIC OR LATINO,Y,Placebo,Pbo,Placebo,Pbo,Placebo,Placebo,2014-04-02,2014-04-02T00:00:00Z,H,2014-10-16,2014-10-16T23:59:59Z,H,COMPLETED,2014-10-16,NA,2014-04-02,2014-10-16,198,NA,NA,NA,NA,1941-03-23
CDISCPILOT01,01-716-1030,1030,716,USA,2013-12-28,2014-01-10,2013-12-28,2014-01-02,2014-01-10T12:30,NA,NA,NA,NA,NA,NA,NA,NA,NA,NA,NA,NA,2013-12-25,-3,83,YEARS,>64,F,WHITE,White,NOT HISPANIC OR LATINO,Y,Xanomeline High Dose,Xan_Hi,Xanomeline Low Dose,Xan_Lo,Xanomeline High Dose,Xanomeline Low Dose,2013-12-28,2013-12-28T00:00:00Z,H,2014-01-02,2014-01-02T23:59:59Z,H,DISCONTINUED,2014-01-10,NA,2013-12-28,2014-01-10,6,NA,NA,NA,NA,1930-12-25
CDISCPILOT01,01-716-1044,1044,716,USA,2013-04-27,2013-11-03,2013-04-27,2013-11-03,2013-11-03T13:10,NA,NA,NA,NA,NA,NA,NA,NA,NA,NA,NA,NA,2013-04-20,-7,74,YEARS,>64,M,WHITE,White,NOT HISPANIC OR LATINO,Y,Placebo,Pbo,Placebo,Pbo,Placebo,Placebo,2013-04-27,2013-04-27T00:00:00Z,H,2013-11-03,2013-11-03T23:59:59Z,H,COMPLETED,2013-11-03,NA,2013-04-27,2013-11-03,191,NA,NA,NA,NA,1939-04-20
CDISCPILOT01,01-716-1061,1061,716,USA,NA,NA,NA,NA,2014-02-14,2014-02-14,NA,NA,NA,NA,NA,NA,NA,NA,NA,NA,NA,2014-02-14,NA,81,YEARS,>64,M,WHITE,White,NOT HISPANIC OR LATINO,N,Screen Failure,Scrnfail,Screen Failure,Scrnfail,Screen Failure,Screen Failure,NA,NA,NA,NA,NA,NA,NA,NA,NA,NA,NA,NA,NA,NA,NA,NA,1933-02-14
CDISCPILOT01,01-716-1063,1063,716,USA,2013-05-09,2013-08-28,2013-05-09,2013-08-25,2013-11-17,NA,2013-11-17,NA,NA,NA,NA,NA,NA,NA,NA,NA,NA,2013-05-06,-3,80,YEARS,>64,M,WHITE,White,NOT HISPANIC OR LATINO,Y,Xanomeline Low Dose,Xan_Lo,Xanomeline Low Dose,Xan_Lo,Xanomeline Low Dose,Xanomeline Low Dose,2013-05-09,2013-05-09T00:00:00Z,H,2013-08-25,2013-08-25T23:59:59Z,H,DISCONTINUED,2013-08-28,NA,2013-05-09,2013-08-28,109,NA,NA,NA,NA,1933-05-06
CDISCPILOT01,01-716-1071,1071,716,USA,2013-06-08,2013-08-01,2013-06-08,2013-08-01,2013-12-16,NA,2013-12-16,NA,NA,NA,NA,NA,NA,NA,NA,NA,NA,2013-06-03,-5,78,YEARS,>64,F,WHITE,White,NOT HISPANIC OR LATINO,Y,Xanomeline High Dose,Xan_Hi,Xanomeline High Dose,Xan_Hi,Xanomeline High Dose,Xanomeline High Dose,2013-06-08,2013-06-08T00:00:00Z,H,2013-08-01,2013-08-01T23:59:59Z,H,DISCONTINUED,2013-08-01,NA,2013-06-08,2013-08-01,55,NA,NA,NA,NA,1935-06-03
CDISCPILOT01,01-716-1094,1094,716,USA,2012-12-19,2013-01-26,2012-12-19,2013-01-24,2013-06-22,NA,2013-06-22,NA,NA,NA,NA,NA,NA,NA,NA,NA,NA,2012-12-16,-3,82,YEARS,>64,M,WHITE,White,NOT HISPANIC OR LATINO,Y,Xanomeline Low Dose,Xan_Lo,Xanomeline Low Dose,Xan_Lo,Xanomeline Low Dose,Xanomeline Low Dose,2012-12-19,2012-12-19T00:00:00Z,H,2013-01-24,2013-01-24T23:59:59Z,H,DISCONTINUED,2013-01-26,NA,2012-12-19,2013-01-26,37,NA,NA,NA,NA,1930-12-16
CDISCPILOT01,01-716-1103,1103,716,USA,2014-03-20,2014-09-20,2014-03-20,2014-09-20,2014-09-20T12:10,NA,NA,NA,NA,NA,NA,NA,NA,NA,NA,NA,NA,2014-03-18,-2,79,YEARS,>64,M,WHITE,White,NOT HISPANIC OR LATINO,Y,Xanomeline Low Dose,Xan_Lo,Xanomeline Low Dose,Xan_Lo,Xanomeline Low Dose,Xanomeline Low Dose,2014-03-20,2014-03-20T00:00:00Z,H,2014-09-20,2014-09-20T23:59:59Z,H,COMPLETED,2014-09-20,NA,2014-03-20,2014-09-20,185,NA,NA,NA,NA,1935-03-18
CDISCPILOT01,01-716-1108,1108,716,USA,2013-02-12,2013-08-10,2013-02-12,2013-08-10,2013-08-10T09:55,NA,NA,NA,NA,NA,NA,NA,NA,NA,NA,NA,NA,2013-02-04,-8,86,YEARS,>64,F,WHITE,White,NOT HISPANIC OR LATINO,Y,Placebo,Pbo,Placebo,Pbo,Placebo,Placebo,2013-02-12,2013-02-12T00:00:00Z,H,2013-08-10,2013-08-10T23:59:59Z,H,COMPLETED,2013-08-10,NA,2013-02-12,2013-08-10,180,NA,NA,NA,NA,1927-02-04
CDISCPILOT01,01-716-1151,1151,716,USA,2013-02-01,2013-06-07,2013-02-01,2013-05-11,2013-08-13,NA,2013-08-13,NA,NA,NA,NA,NA,NA,NA,NA,NA,NA,2013-01-23,-9,83,YEARS,>64,F,WHITE,White,NOT HISPANIC OR LATINO,Y,Xanomeline Low Dose,Xan_Lo,Xanomeline Low Dose,Xan_Lo,Xanomeline Low Dose,Xanomeline Low Dose,2013-02-01,2013-02-01T00:00:00Z,H,2013-05-11,2013-05-11T23:59:59Z,H,DISCONTINUED,2013-06-07,NA,2013-02-01,2013-06-07,100,NA,NA,NA,NA,1930-01-23
CDISCPILOT01,01-716-1157,1157,716,USA,2013-10-02,2014-04-05,2013-10-02,2014-04-04,2014-04-05T11:10,NA,NA,NA,NA,NA,NA,NA,NA,NA,NA,NA,NA,2013-09-23,-9,85,YEARS,>64,M,WHITE,White,NOT HISPANIC OR LATINO,Y,Xanomeline Low Dose,Xan_Lo,Xanomeline Low Dose,Xan_Lo,Xanomeline Low Dose,Xanomeline Low Dose,2013-10-02,2013-10-02T00:00:00Z,H,2014-04-04,2014-04-04T23:59:59Z,H,COMPLETED,2014-04-05,NA,2013-10-02,2014-04-05,185,NA,NA,NA,NA,1928-09-23
CDISCPILOT01,01-716-1160,1160,716,USA,2013-04-05,2013-10-11,2013-04-05,2013-10-11,2013-10-11T13:30,NA,NA,NA,NA,NA,NA,NA,NA,NA,NA,NA,NA,2013-03-23,-13,83,YEARS,>64,F,WHITE,White,NOT HISPANIC OR LATINO,Y,Placebo,Pbo,Placebo,Pbo,Placebo,Placebo,2013-04-05,2013-04-05T00:00:00Z,H,2013-10-11,2013-10-11T23:59:59Z,H,COMPLETED,2013-10-11,NA,2013-04-05,2013-10-11,190,NA,NA,NA,NA,1930-03-23
CDISCPILOT01,01-716-1167,1167,716,USA,2012-10-08,2013-04-13,2012-10-08,2013-04-12,2013-04-13T11:10,NA,NA,NA,NA,NA,NA,NA,NA,NA,NA,NA,NA,2012-09-30,-8,68,YEARS,>64,M,WHITE,White,NOT HISPANIC OR LATINO,Y,Xanomeline Low Dose,Xan_Lo,Xanomeline Low Dose,Xan_Lo,Xanomeline Low Dose,Xanomeline Low Dose,2012-10-08,2012-10-08T00:00:00Z,H,2013-04-12,2013-04-12T23:59:59Z,H,COMPLETED,2013-04-13,NA,2012-10-08,2013-04-13,187,NA,NA,NA,NA,1944-09-30
CDISCPILOT01,01-716-1177,1177,716,USA,2014-09-02,2015-03-05,2014-09-02,2015-03-05,2015-03-05T14:40,NA,NA,NA,NA,NA,NA,NA,NA,NA,NA,NA,NA,2014-08-29,-4,72,YEARS,>64,M,WHITE,White,NOT HISPANIC OR LATINO,Y,Placebo,Pbo,Placebo,Pbo,Placebo,Placebo,2014-09-02,2014-09-02T00:00:00Z,H,2015-03-05,2015-03-05T23:59:59Z,H,COMPLETED,2015-03-05,NA,2014-09-02,2015-03-05,185,NA,NA,NA,NA,1942-08-29
CDISCPILOT01,01-716-1189,1189,716,USA,2012-10-09,2013-03-03,2012-10-09,2013-02-27,2013-04-08,NA,2013-04-08,NA,NA,NA,NA,NA,NA,NA,NA,NA,NA,2012-10-07,-2,81,YEARS,>64,M,WHITE,White,NOT HISPANIC OR LATINO,Y,Xanomeline High Dose,Xan_Hi,Xanomeline High Dose,Xan_Hi,Xanomeline High Dose,Xanomeline High Dose,2012-10-09,2012-10-09T00:00:00Z,H,2013-02-27,2013-02-27T23:59:59Z,H,DISCONTINUED,2013-03-03,NA,2012-10-09,2013-03-03,142,NA,NA,NA,NA,1931-10-07
CDISCPILOT01,01-716-1229,1229,716,USA,2013-02-20,2013-04-02,2013-02-20,2013-03-31,2013-04-02T11:15,NA,NA,NA,NA,NA,NA,NA,NA,NA,NA,NA,NA,2013-02-14,-6,73,YEARS,>64,F,WHITE,White,NOT HISPANIC OR LATINO,Y,Xanomeline High Dose,Xan_Hi,Xanomeline High Dose,Xan_Hi,Xanomeline High Dose,Xanomeline High Dose,2013-02-20,2013-02-20T00:00:00Z,H,2013-03-31,2013-03-31T23:59:59Z,H,DISCONTINUED,2013-04-02,NA,2013-02-20,2013-04-02,40,NA,NA,NA,NA,1940-02-14
CDISCPILOT01,01-716-1244,1244,716,USA,NA,NA,NA,NA,2013-09-03,2013-08-15,NA,NA,NA,NA,NA,NA,NA,NA,NA,NA,NA,2013-08-15,NA,72,YEARS,>64,F,WHITE,White,NOT HISPANIC OR LATINO,N,Screen Failure,Scrnfail,Screen Failure,Scrnfail,Screen Failure,Screen Failure,NA,NA,NA,NA,NA,NA,NA,NA,NA,NA,NA,NA,NA,NA,NA,NA,1941-08-15
CDISCPILOT01,01-716-1298,1298,716,USA,2013-04-08,2013-07-06,2013-04-08,2013-06-28,2013-10-07,NA,2013-10-07,NA,NA,NA,NA,NA,NA,NA,NA,NA,NA,2013-04-04,-4,76,YEARS,>64,F,WHITE,White,NOT HISPANIC OR LATINO,Y,Xanomeline Low Dose,Xan_Lo,Xanomeline Low Dose,Xan_Lo,Xanomeline Low Dose,Xanomeline Low Dose,2013-04-08,2013-04-08T00:00:00Z,H,2013-06-28,2013-06-28T23:59:59Z,H,DISCONTINUED,2013-07-06,NA,2013-04-08,2013-07-06,82,NA,NA,NA,NA,1937-04-04
CDISCPILOT01,01-716-1305,1305,716,USA,NA,NA,NA,NA,2013-08-28,2013-08-06,NA,NA,NA,NA,NA,NA,NA,NA,NA,NA,NA,2013-08-06,NA,73,YEARS,>64,F,WHITE,White,NOT HISPANIC OR LATINO,N,Screen Failure,Scrnfail,Screen Failure,Scrnfail,Screen Failure,Screen Failure,NA,NA,NA,NA,NA,NA,NA,NA,NA,NA,NA,NA,NA,NA,NA,NA,1940-08-06
CDISCPILOT01,01-716-1308,1308,716,USA,2013-08-28,2013-10-07,2013-08-28,2013-10-07,2013-10-07T15:50,NA,NA,NA,NA,NA,NA,NA,NA,NA,NA,NA,NA,2013-08-23,-5,76,YEARS,>64,F,WHITE,White,NOT HISPANIC OR LATINO,Y,Placebo,Pbo,Placebo,Pbo,Placebo,Placebo,2013-08-28,2013-08-28T00:00:00Z,H,2013-10-07,2013-10-07T23:59:59Z,H,DISCONTINUED,2013-10-07,NA,2013-08-28,2013-10-07,41,NA,NA,NA,NA,1937-08-23
CDISCPILOT01,01-716-1311,1311,716,USA,2014-05-14,2014-09-30,2014-05-14,2014-09-21,2014-11-15,NA,2014-11-15,NA,NA,NA,NA,NA,NA,NA,NA,NA,NA,2014-05-08,-6,78,YEARS,>64,M,WHITE,White,NOT HISPANIC OR LATINO,Y,Xanomeline Low Dose,Xan_Lo,Xanomeline Low Dose,Xan_Lo,Xanomeline Low Dose,Xanomeline Low Dose,2014-05-14,2014-05-14T00:00:00Z,H,2014-09-21,2014-09-21T23:59:59Z,H,DISCONTINUED,2014-09-30,NA,2014-05-14,2014-09-30,131,NA,NA,NA,NA,1936-05-08
CDISCPILOT01,01-716-1331,1331,716,USA,NA,NA,NA,NA,2013-11-25,2013-11-25,NA,NA,NA,NA,NA,NA,NA,NA,NA,NA,NA,2013-11-25,NA,59,YEARS,18-64,F,WHITE,White,NOT HISPANIC OR LATINO,N,Screen Failure,Scrnfail,Screen Failure,Scrnfail,Screen Failure,Screen Failure,NA,NA,NA,NA,NA,NA,NA,NA,NA,NA,NA,NA,NA,NA,NA,NA,1954-11-25
CDISCPILOT01,01-716-1364,1364,716,USA,2013-07-04,2014-01-09,2013-07-04,2014-01-09,2014-01-09T15:30,NA,NA,NA,NA,NA,NA,NA,NA,NA,NA,NA,NA,2013-06-27,-7,84,YEARS,>64,F,WHITE,White,NOT HISPANIC OR LATINO,Y,Xanomeline High Dose,Xan_Hi,Xanomeline High Dose,Xan_Hi,Xanomeline High Dose,Xanomeline High Dose,2013-07-04,2013-07-04T00:00:00Z,H,2014-01-09,2014-01-09T23:59:59Z,H,COMPLETED,2014-01-09,NA,2013-07-04,2014-01-09,190,NA,NA,NA,NA,1929-06-27
CDISCPILOT01,01-716-1373,1373,716,USA,2012-12-14,2013-02-28,2012-12-14,2013-02-27,2013-02-28T10:23,NA,NA,NA,NA,NA,NA,NA,NA,NA,NA,NA,NA,2012-11-24,-20,74,YEARS,>64,M,WHITE,White,NOT HISPANIC OR LATINO,Y,Xanomeline High Dose,Xan_Hi,Xanomeline High Dose,Xan_Hi,Xanomeline High Dose,Xanomeline High Dose,2012-12-14,2012-12-14T00:00:00Z,H,2013-02-27,2013-02-27T23:59:59Z,H,DISCONTINUED,2013-02-28,NA,2012-12-14,2013-02-28,76,NA,NA,NA,NA,1938-11-24
CDISCPILOT01,01-716-1418,1418,716,USA,2013-05-05,2013-11-20,2013-05-05,2013-11-20,2013-11-20T11:44,NA,NA,NA,NA,NA,NA,NA,NA,NA,NA,NA,NA,2013-04-27,-8,80,YEARS,>64,F,WHITE,White,NOT HISPANIC OR LATINO,Y,Xanomeline High Dose,Xan_Hi,Xanomeline High Dose,Xan_Hi,Xanomeline High Dose,Xanomeline High Dose,2013-05-05,2013-05-05T00:00:00Z,H,2013-11-20,2013-11-20T23:59:59Z,H,COMPLETED,2013-11-20,NA,2013-05-05,2013-11-20,200,NA,NA,NA,NA,1933-04-27
CDISCPILOT01,01-716-1441,1441,716,USA,2014-01-22,2014-07-22,2014-01-22,2014-07-22,2014-07-22T10:00,NA,NA,NA,NA,NA,NA,NA,NA,NA,NA,NA,NA,2014-01-13,-9,85,YEARS,>64,M,WHITE,White,NOT HISPANIC OR LATINO,Y,Placebo,Pbo,Placebo,Pbo,Placebo,Placebo,2014-01-22,2014-01-22T00:00:00Z,H,2014-07-22,2014-07-22T23:59:59Z,H,COMPLETED,2014-07-22,NA,2014-01-22,2014-07-22,182,NA,NA,NA,NA,1929-01-13
CDISCPILOT01,01-716-1447,1447,716,USA,2013-12-16,2014-06-17,2013-12-16,2014-06-17,2014-06-17T12:00,NA,NA,NA,NA,NA,NA,NA,NA,NA,NA,NA,NA,2013-12-10,-6,72,YEARS,>64,F,WHITE,White,NOT HISPANIC OR LATINO,Y,Xanomeline High Dose,Xan_Hi,Xanomeline High Dose,Xan_Hi,Xanomeline High Dose,Xanomeline High Dose,2013-12-16,2013-12-16T00:00:00Z,H,2014-06-17,2014-06-17T23:59:59Z,H,COMPLETED,2014-06-17,NA,2013-12-16,2014-06-17,184,NA,NA,NA,NA,1941-12-10
CDISCPILOT01,01-717-1004,1004,717,USA,2014-01-14,2014-07-16,2014-01-14,2014-07-16,2014-07-16T13:21,NA,NA,NA,NA,NA,NA,NA,NA,NA,NA,NA,NA,2014-01-01,-13,80,YEARS,>64,F,WHITE,White,NOT HISPANIC OR LATINO,Y,Xanomeline Low Dose,Xan_Lo,Xanomeline Low Dose,Xan_Lo,Xanomeline Low Dose,Xanomeline Low Dose,2014-01-14,2014-01-14T00:00:00Z,H,2014-07-16,2014-07-16T23:59:59Z,H,COMPLETED,2014-07-16,NA,2014-01-14,2014-07-16,184,NA,NA,NA,NA,1934-01-01
CDISCPILOT01,01-717-1109,1109,717,USA,2014-01-27,2014-07-28,2014-01-27,2014-07-28,2014-07-28T10:53,NA,NA,NA,NA,NA,NA,NA,NA,NA,NA,NA,NA,2014-01-20,-7,84,YEARS,>64,M,WHITE,White,NOT HISPANIC OR LATINO,Y,Xanomeline High Dose,Xan_Hi,Xanomeline High Dose,Xan_Hi,Xanomeline High Dose,Xanomeline High Dose,2014-01-27,2014-01-27T00:00:00Z,H,2014-07-28,2014-07-28T23:59:59Z,H,COMPLETED,2014-07-28,NA,2014-01-27,2014-07-28,183,NA,NA,NA,NA,1930-01-20
CDISCPILOT01,01-717-1174,1174,717,USA,2013-01-22,2013-07-24,2013-01-22,2013-07-24,2013-07-24T15:15,NA,NA,NA,NA,NA,NA,NA,NA,NA,NA,NA,NA,2013-01-16,-6,73,YEARS,>64,M,WHITE,White,NOT HISPANIC OR LATINO,Y,Xanomeline High Dose,Xan_Hi,Xanomeline High Dose,Xan_Hi,Xanomeline High Dose,Xanomeline High Dose,2013-01-22,2013-01-22T00:00:00Z,H,2013-07-24,2013-07-24T23:59:59Z,H,COMPLETED,2013-07-24,NA,2013-01-22,2013-07-24,184,NA,NA,NA,NA,1940-01-16
CDISCPILOT01,01-717-1201,1201,717,USA,2013-12-19,2014-02-21,2013-12-19,2014-02-21,2014-02-21T11:14,NA,NA,NA,NA,NA,NA,NA,NA,NA,NA,NA,NA,2013-12-12,-7,85,YEARS,>64,F,WHITE,White,NOT HISPANIC OR LATINO,Y,Placebo,Pbo,Placebo,Pbo,Placebo,Placebo,2013-12-19,2013-12-19T00:00:00Z,H,2014-02-21,2014-02-21T23:59:59Z,H,DISCONTINUED,2014-02-21,NA,2013-12-19,2014-02-21,65,NA,NA,NA,NA,1928-12-12
CDISCPILOT01,01-717-1344,1344,717,USA,2014-01-11,2014-03-14,2014-01-11,2014-03-14,2014-03-14T14:14,NA,NA,NA,NA,NA,NA,NA,NA,NA,NA,NA,NA,2014-01-01,-10,64,YEARS,18-64,F,WHITE,White,NOT HISPANIC OR LATINO,Y,Placebo,Pbo,Placebo,Pbo,Placebo,Placebo,2014-01-11,2014-01-11T00:00:00Z,H,2014-03-14,2014-03-14T23:59:59Z,H,DISCONTINUED,2014-03-14,NA,2014-01-11,2014-03-14,63,NA,NA,NA,NA,1950-01-01
CDISCPILOT01,01-717-1357,1357,717,USA,2013-05-01,2013-10-20,2013-05-01,2013-10-14,2013-10-20T10:52,NA,NA,NA,NA,NA,NA,NA,NA,NA,NA,NA,NA,2013-04-21,-10,77,YEARS,>64,M,WHITE,White,NOT HISPANIC OR LATINO,Y,Xanomeline High Dose,Xan_Hi,Xanomeline High Dose,Xan_Hi,Xanomeline High Dose,Xanomeline High Dose,2013-05-01,2013-05-01T00:00:00Z,H,2013-10-14,2013-10-14T23:59:59Z,H,DISCONTINUED,2013-10-20,NA,2013-05-01,2013-10-20,167,NA,NA,NA,NA,1936-04-21
CDISCPILOT01,01-717-1446,1446,717,USA,2013-09-01,2014-03-04,2013-09-01,2014-03-03,2014-03-17T09:52,NA,NA,NA,NA,NA,NA,NA,NA,NA,NA,NA,NA,2013-08-20,-12,75,YEARS,>64,F,WHITE,White,NOT HISPANIC OR LATINO,Y,Xanomeline Low Dose,Xan_Lo,Xanomeline Low Dose,Xan_Lo,Xanomeline Low Dose,Xanomeline Low Dose,2013-09-01,2013-09-01T00:00:00Z,H,2014-03-03,2014-03-03T23:59:59Z,H,COMPLETED,2014-03-04,NA,2013-09-01,2014-03-17,184,NA,NA,NA,NA,1938-08-20
CDISCPILOT01,01-718-1066,1066,718,USA,2013-07-07,2013-07-30,2013-07-07,2013-07-16,2014-01-13,NA,NA,NA,NA,NA,NA,NA,NA,NA,NA,NA,NA,2013-06-28,-9,79,YEARS,>64,F,WHITE,White,NOT HISPANIC OR LATINO,Y,Xanomeline Low Dose,Xan_Lo,Xanomeline Low Dose,Xan_Lo,Xanomeline Low Dose,Xanomeline Low Dose,2013-07-07,2013-07-07T00:00:00Z,H,2013-07-16,2013-07-16T23:59:59Z,H,DISCONTINUED,2013-07-30,NA,2013-07-07,2013-07-30,10,NA,NA,NA,NA,1934-06-28
CDISCPILOT01,01-718-1079,1079,718,USA,2012-09-19,2012-11-06,2012-09-19,2012-10-31,2013-03-05,NA,2013-03-05,NA,NA,NA,NA,NA,NA,NA,NA,NA,NA,2012-09-11,-8,67,YEARS,>64,F,WHITE,White,NOT HISPANIC OR LATINO,Y,Xanomeline Low Dose,Xan_Lo,Xanomeline Low Dose,Xan_Lo,Xanomeline Low Dose,Xanomeline Low Dose,2012-09-19,2012-09-19T00:00:00Z,H,2012-10-31,2012-10-31T23:59:59Z,H,DISCONTINUED,2012-11-06,NA,2012-09-19,2012-10-31,43,NA,NA,NA,NA,1945-09-11
CDISCPILOT01,01-718-1101,1101,718,USA,2013-02-17,2013-08-02,2013-02-17,2013-07-31,2013-08-02T11:30,NA,NA,NA,NA,NA,NA,NA,NA,NA,NA,NA,NA,2013-02-01,-16,82,YEARS,>64,M,BLACK OR AFRICAN AMERICAN,Non-white,NOT HISPANIC OR LATINO,Y,Xanomeline High Dose,Xan_Hi,Xanomeline High Dose,Xan_Hi,Xanomeline High Dose,Xanomeline High Dose,2013-02-17,2013-02-17T00:00:00Z,H,2013-07-31,2013-07-31T23:59:59Z,H,DISCONTINUED,2013-08-02,NA,2013-02-17,2013-08-02,165,NA,NA,NA,NA,1931-02-01
CDISCPILOT01,01-718-1139,1139,718,USA,2013-05-19,2013-11-17,2013-05-19,2013-11-17,2013-11-17T10:30,NA,NA,NA,NA,NA,NA,NA,NA,NA,NA,NA,NA,2013-05-03,-16,77,YEARS,>64,M,WHITE,White,NOT HISPANIC OR LATINO,Y,Placebo,Pbo,Placebo,Pbo,Placebo,Placebo,2013-05-19,2013-05-19T00:00:00Z,H,2013-11-17,2013-11-17T23:59:59Z,H,COMPLETED,2013-11-17,NA,2013-05-19,2013-11-17,183,NA,NA,NA,NA,1936-05-03
CDISCPILOT01,01-718-1150,1150,718,USA,2013-01-19,2013-07-31,2013-01-19,2013-07-29,2013-07-31T14:05,NA,NA,NA,NA,NA,NA,NA,NA,NA,NA,NA,NA,2013-01-12,-7,73,YEARS,>64,F,WHITE,White,NOT HISPANIC OR LATINO,Y,Placebo,Pbo,Placebo,Pbo,Placebo,Placebo,2013-01-19,2013-01-19T00:00:00Z,H,2013-07-29,2013-07-29T23:59:59Z,H,COMPLETED,2013-07-31,NA,2013-01-19,2013-07-31,192,NA,NA,NA,NA,1940-01-12
CDISCPILOT01,01-718-1170,1170,718,USA,2013-09-16,2013-11-03,2013-09-16,2013-10-12,2014-03-15,NA,2014-03-15,NA,NA,NA,NA,NA,NA,NA,NA,NA,NA,2013-08-25,-22,80,YEARS,>64,F,WHITE,White,NOT HISPANIC OR LATINO,Y,Xanomeline Low Dose,Xan_Lo,Xanomeline Low Dose,Xan_Lo,Xanomeline Low Dose,Xanomeline Low Dose,2013-09-16,2013-09-16T00:00:00Z,H,2013-10-12,2013-10-12T23:59:59Z,H,DISCONTINUED,2013-11-03,NA,2013-09-16,2013-11-03,27,NA,NA,NA,NA,1933-08-25
CDISCPILOT01,01-718-1172,1172,718,USA,2013-09-21,2013-11-29,2013-09-21,2013-11-29,2014-03-21,NA,2014-03-21,NA,NA,NA,NA,NA,NA,NA,NA,NA,NA,2013-09-15,-6,74,YEARS,>64,M,WHITE,White,NOT HISPANIC OR LATINO,Y,Placebo,Pbo,Placebo,Pbo,Placebo,Placebo,2013-09-21,2013-09-21T00:00:00Z,H,2013-11-29,2013-11-29T23:59:59Z,H,DISCONTINUED,2013-11-29,NA,2013-09-21,2013-11-29,70,NA,NA,NA,NA,1939-09-15
CDISCPILOT01,01-718-1250,1250,718,USA,2013-09-21,2014-02-08,2013-09-21,2014-01-31,2014-03-08,NA,2014-03-08,NA,NA,NA,NA,NA,NA,NA,NA,NA,NA,2013-08-21,-31,82,YEARS,>64,F,WHITE,White,HISPANIC OR LATINO,Y,Xanomeline Low Dose,Xan_Lo,Xanomeline Low Dose,Xan_Lo,Xanomeline Low Dose,Xanomeline Low Dose,2013-09-21,2013-09-21T00:00:00Z,H,2014-01-31,2014-01-31T23:59:59Z,H,DISCONTINUED,2014-02-08,NA,2013-09-21,2014-02-19,133,NA,NA,NA,NA,1931-08-21
CDISCPILOT01,01-718-1254,1254,718,USA,2013-07-10,2014-01-09,2013-07-10,2014-01-09,2014-01-09T11:10,NA,NA,NA,NA,NA,NA,NA,NA,NA,NA,NA,NA,2013-06-28,-12,78,YEARS,>64,M,WHITE,White,HISPANIC OR LATINO,Y,Xanomeline Low Dose,Xan_Lo,Xanomeline Low Dose,Xan_Lo,Xanomeline Low Dose,Xanomeline Low Dose,2013-07-10,2013-07-10T00:00:00Z,H,2014-01-09,2014-01-09T23:59:59Z,H,COMPLETED,2014-01-09,NA,2013-07-10,2014-01-09,184,NA,NA,NA,NA,1935-06-28
CDISCPILOT01,01-718-1328,1328,718,USA,2013-02-01,2013-05-01,2013-02-01,2013-04-18,2013-07-24,NA,2013-07-24,NA,NA,NA,NA,NA,NA,NA,NA,NA,NA,2013-01-28,-4,86,YEARS,>64,M,WHITE,White,NOT HISPANIC OR LATINO,Y,Xanomeline High Dose,Xan_Hi,Xanomeline High Dose,Xan_Hi,Xanomeline High Dose,Xanomeline High Dose,2013-02-01,2013-02-01T00:00:00Z,H,2013-04-18,2013-04-18T23:59:59Z,H,DISCONTINUED,2013-05-01,NA,2013-02-01,2013-05-01,77,NA,NA,NA,NA,1927-01-28
CDISCPILOT01,01-718-1355,1355,718,USA,2013-02-28,2013-08-29,2013-02-28,2013-08-29,2013-08-29T14:00,NA,NA,NA,NA,NA,NA,NA,NA,NA,NA,NA,NA,2013-02-12,-16,79,YEARS,>64,M,WHITE,White,NOT HISPANIC OR LATINO,Y,Placebo,Pbo,Placebo,Pbo,Placebo,Placebo,2013-02-28,2013-02-28T00:00:00Z,H,2013-08-29,2013-08-29T23:59:59Z,H,COMPLETED,2013-08-29,NA,2013-02-28,2013-08-29,183,NA,NA,NA,NA,1934-02-12
CDISCPILOT01,01-718-1371,1371,718,USA,2013-04-26,2013-08-08,2013-04-26,2013-08-01,2013-08-08,NA,NA,NA,NA,NA,NA,NA,NA,NA,NA,NA,NA,2013-04-11,-15,69,YEARS,>64,F,WHITE,White,NOT HISPANIC OR LATINO,Y,Xanomeline High Dose,Xan_Hi,Xanomeline High Dose,Xan_Hi,Xanomeline High Dose,Xanomeline High Dose,2013-04-26,2013-04-26T00:00:00Z,H,2013-08-01,2013-08-01T23:59:59Z,H,DISCONTINUED,2013-08-08,NA,2013-04-26,2013-08-01,98,NA,NA,NA,NA,1944-04-11
CDISCPILOT01,01-718-1427,1427,718,USA,2012-12-17,2013-02-18,2012-12-17,2013-02-11,2013-06-03,NA,2013-06-03,NA,NA,NA,NA,NA,NA,NA,NA,NA,NA,2012-12-13,-4,74,YEARS,>64,F,BLACK OR AFRICAN AMERICAN,Non-white,NOT HISPANIC OR LATINO,Y,Xanomeline High Dose,Xan_Hi,Xanomeline High Dose,Xan_Hi,Xanomeline High Dose,Xanomeline High Dose,2012-12-17,2012-12-17T00:00:00Z,H,2013-02-11,2013-02-11T23:59:59Z,H,DISCONTINUED,2013-02-18,NA,2012-12-17,2013-02-25,57,NA,NA,NA,NA,1938-12-13
